dat_Subject,list,display_order,type,id,con,fab_stimulus,fab_question,fab_key,fab_instruction,fab_feedback,dat_Trial,dat_Window,dat_WindowSequence,dat_LoopNumber,dat_LoopPosition,dat_LoopSum,dat_AreaNumber,dat_AreaPosition,dat_AreaSum,dat_ReactionTime,dat_Time,dat_Ans,dat_AnsReactionTime,dat_Accuracy
223,1,p1,practice,practice_1,,/+/The patient listened to the doctor's advice after he felt hopeless./,Did the patient follow the doctor?,Y,ins.jpg,1,1,+,1,1,1,1,1,1,1,10059,1563013246726,Y,5228,1
223,1,p1,practice,practice_1,,/+/The patient listened to the doctor's advice after he felt hopeless./,Did the patient follow the doctor?,Y,ins.jpg,1,1,The,2,2,1,11,1,1,11,2944,1563013249670,Y,5228,1
223,1,p1,practice,practice_1,,/+/The patient listened to the doctor's advice after he felt hopeless./,Did the patient follow the doctor?,Y,ins.jpg,1,1,patient,3,2,2,11,1,2,11,1752,1563013251422,Y,5228,1
223,1,p1,practice,practice_1,,/+/The patient listened to the doctor's advice after he felt hopeless./,Did the patient follow the doctor?,Y,ins.jpg,1,1,listened,4,2,3,11,1,3,11,1224,1563013252646,Y,5228,1
223,1,p1,practice,practice_1,,/+/The patient listened to the doctor's advice after he felt hopeless./,Did the patient follow the doctor?,Y,ins.jpg,1,1,to,5,2,4,11,1,4,11,935,1563013253581,Y,5228,1
223,1,p1,practice,practice_1,,/+/The patient listened to the doctor's advice after he felt hopeless./,Did the patient follow the doctor?,Y,ins.jpg,1,1,the,6,2,5,11,1,5,11,872,1563013254453,Y,5228,1
223,1,p1,practice,practice_1,,/+/The patient listened to the doctor's advice after he felt hopeless./,Did the patient follow the doctor?,Y,ins.jpg,1,1,doctor's,7,2,6,11,1,6,11,889,1563013255342,Y,5228,1
223,1,p1,practice,practice_1,,/+/The patient listened to the doctor's advice after he felt hopeless./,Did the patient follow the doctor?,Y,ins.jpg,1,1,advice,8,2,7,11,1,7,11,1352,1563013256694,Y,5228,1
223,1,p1,practice,practice_1,,/+/The patient listened to the doctor's advice after he felt hopeless./,Did the patient follow the doctor?,Y,ins.jpg,1,1,after,9,2,8,11,1,8,11,728,1563013257422,Y,5228,1
223,1,p1,practice,practice_1,,/+/The patient listened to the doctor's advice after he felt hopeless./,Did the patient follow the doctor?,Y,ins.jpg,1,1,he,10,2,9,11,1,9,11,704,1563013258126,Y,5228,1
223,1,p1,practice,practice_1,,/+/The patient listened to the doctor's advice after he felt hopeless./,Did the patient follow the doctor?,Y,ins.jpg,1,1,felt,11,2,10,11,1,10,11,888,1563013259014,Y,5228,1
223,1,p1,practice,practice_1,,/+/The patient listened to the doctor's advice after he felt hopeless./,Did the patient follow the doctor?,Y,ins.jpg,1,1,hopeless.,12,2,11,11,1,11,11,1583,1563013260597,Y,5228,1
223,1,p2,practice,practice_2,,/+/The visitors knew little about how the painting was created./,Did the visitors know how the painting was created?,N,,1,2,+,1,1,1,1,1,1,1,1877,1563013268206,N,2923,1
223,1,p2,practice,practice_2,,/+/The visitors knew little about how the painting was created./,Did the visitors know how the painting was created?,N,,1,2,The,2,2,1,10,1,1,10,664,1563013268870,N,2923,1
223,1,p2,practice,practice_2,,/+/The visitors knew little about how the painting was created./,Did the visitors know how the painting was created?,N,,1,2,visitors,3,2,2,10,1,2,10,632,1563013269502,N,2923,1
223,1,p2,practice,practice_2,,/+/The visitors knew little about how the painting was created./,Did the visitors know how the painting was created?,N,,1,2,knew,4,2,3,10,1,3,10,768,1563013270270,N,2923,1
223,1,p2,practice,practice_2,,/+/The visitors knew little about how the painting was created./,Did the visitors know how the painting was created?,N,,1,2,little,5,2,4,10,1,4,10,712,1563013270982,N,2923,1
223,1,p2,practice,practice_2,,/+/The visitors knew little about how the painting was created./,Did the visitors know how the painting was created?,N,,1,2,about,6,2,5,10,1,5,10,632,1563013271614,N,2923,1
223,1,p2,practice,practice_2,,/+/The visitors knew little about how the painting was created./,Did the visitors know how the painting was created?,N,,1,2,how,7,2,6,10,1,6,10,608,1563013272222,N,2923,1
223,1,p2,practice,practice_2,,/+/The visitors knew little about how the painting was created./,Did the visitors know how the painting was created?,N,,1,2,the,8,2,7,10,1,7,10,583,1563013272805,N,2923,1
223,1,p2,practice,practice_2,,/+/The visitors knew little about how the painting was created./,Did the visitors know how the painting was created?,N,,1,2,painting,9,2,8,10,1,8,10,976,1563013273781,N,2923,1
223,1,p2,practice,practice_2,,/+/The visitors knew little about how the painting was created./,Did the visitors know how the painting was created?,N,,1,2,was,10,2,9,10,1,9,10,553,1563013274334,N,2923,1
223,1,p2,practice,practice_2,,/+/The visitors knew little about how the painting was created./,Did the visitors know how the painting was created?,N,,1,2,created.,11,2,10,10,1,10,10,1024,1563013275358,N,2923,1
223,1,p3,practice,practice_3,,/+/The old lady lived further away from the city center./,Did the old lady live in the city center?,N,,1,3,+,1,1,1,1,1,1,1,928,1563013279710,N,2644,1
223,1,p3,practice,practice_3,,/+/The old lady lived further away from the city center./,Did the old lady live in the city center?,N,,1,3,The,2,2,1,10,1,1,10,464,1563013280174,N,2644,1
223,1,p3,practice,practice_3,,/+/The old lady lived further away from the city center./,Did the old lady live in the city center?,N,,1,3,old,3,2,2,10,1,2,10,1176,1563013281350,N,2644,1
223,1,p3,practice,practice_3,,/+/The old lady lived further away from the city center./,Did the old lady live in the city center?,N,,1,3,lady,4,2,3,10,1,3,10,840,1563013282190,N,2644,1
223,1,p3,practice,practice_3,,/+/The old lady lived further away from the city center./,Did the old lady live in the city center?,N,,1,3,lived,5,2,4,10,1,4,10,928,1563013283118,N,2644,1
223,1,p3,practice,practice_3,,/+/The old lady lived further away from the city center./,Did the old lady live in the city center?,N,,1,3,further,6,2,5,10,1,5,10,528,1563013283646,N,2644,1
223,1,p3,practice,practice_3,,/+/The old lady lived further away from the city center./,Did the old lady live in the city center?,N,,1,3,away,7,2,6,10,1,6,10,720,1563013284366,N,2644,1
223,1,p3,practice,practice_3,,/+/The old lady lived further away from the city center./,Did the old lady live in the city center?,N,,1,3,from,8,2,7,10,1,7,10,752,1563013285118,N,2644,1
223,1,p3,practice,practice_3,,/+/The old lady lived further away from the city center./,Did the old lady live in the city center?,N,,1,3,the,9,2,8,10,1,8,10,496,1563013285614,N,2644,1
223,1,p3,practice,practice_3,,/+/The old lady lived further away from the city center./,Did the old lady live in the city center?,N,,1,3,city,10,2,9,10,1,9,10,616,1563013286230,N,2644,1
223,1,p3,practice,practice_3,,/+/The old lady lived further away from the city center./,Did the old lady live in the city center?,N,,1,3,center.,11,2,10,10,1,10,10,791,1563013287021,N,2644,1
223,1,p4,practice,practice_4,,/+/The maid looked at the hostess with a nervous smile./,Did the maid feel nervous? ,Y,,1,4,+,1,1,1,1,1,1,1,1191,1563013291358,Y,2491,1
223,1,p4,practice,practice_4,,/+/The maid looked at the hostess with a nervous smile./,Did the maid feel nervous? ,Y,,1,4,The,2,2,1,10,1,1,10,472,1563013291830,Y,2491,1
223,1,p4,practice,practice_4,,/+/The maid looked at the hostess with a nervous smile./,Did the maid feel nervous? ,Y,,1,4,maid,3,2,2,10,1,2,10,816,1563013292646,Y,2491,1
223,1,p4,practice,practice_4,,/+/The maid looked at the hostess with a nervous smile./,Did the maid feel nervous? ,Y,,1,4,looked,4,2,3,10,1,3,10,552,1563013293198,Y,2491,1
223,1,p4,practice,practice_4,,/+/The maid looked at the hostess with a nervous smile./,Did the maid feel nervous? ,Y,,1,4,at,5,2,4,10,1,4,10,1023,1563013294221,Y,2491,1
223,1,p4,practice,practice_4,,/+/The maid looked at the hostess with a nervous smile./,Did the maid feel nervous? ,Y,,1,4,the,6,2,5,10,1,5,10,537,1563013294758,Y,2491,1
223,1,p4,practice,practice_4,,/+/The maid looked at the hostess with a nervous smile./,Did the maid feel nervous? ,Y,,1,4,hostess,7,2,6,10,1,6,10,888,1563013295646,Y,2491,1
223,1,p4,practice,practice_4,,/+/The maid looked at the hostess with a nervous smile./,Did the maid feel nervous? ,Y,,1,4,with,8,2,7,10,1,7,10,511,1563013296157,Y,2491,1
223,1,p4,practice,practice_4,,/+/The maid looked at the hostess with a nervous smile./,Did the maid feel nervous? ,Y,,1,4,a,9,2,8,10,1,8,10,529,1563013296686,Y,2491,1
223,1,p4,practice,practice_4,,/+/The maid looked at the hostess with a nervous smile./,Did the maid feel nervous? ,Y,,1,4,nervous,10,2,9,10,1,9,10,848,1563013297534,Y,2491,1
223,1,p4,practice,practice_4,,/+/The maid looked at the hostess with a nervous smile./,Did the maid feel nervous? ,Y,,1,4,smile.,11,2,10,10,1,10,10,655,1563013298189,Y,2491,1
223,1,p5,practice,practice_5,,/+/The young lady * sent a red rose * became * really embarrassed./,Did the lady send a red rose?,N,,1,5,+,1,1,1,1,1,1,1,1056,1563013302237,Y,3092,0
223,1,p5,practice,practice_5,,/+/The young lady * sent a red rose * became * really embarrassed./,Did the lady send a red rose?,N,,1,5,The,2,2,1,10,1,1,3,625,1563013302862,Y,3092,0
223,1,p5,practice,practice_5,,/+/The young lady * sent a red rose * became * really embarrassed./,Did the lady send a red rose?,N,,1,5,young,3,2,2,10,1,2,3,375,1563013303237,Y,3092,0
223,1,p5,practice,practice_5,,/+/The young lady * sent a red rose * became * really embarrassed./,Did the lady send a red rose?,N,,1,5,lady,4,2,3,10,1,3,3,1008,1563013304245,Y,3092,0
223,1,p5,practice,practice_5,,/+/The young lady * sent a red rose * became * really embarrassed./,Did the lady send a red rose?,N,,1,5,sent,5,2,4,10,2,1,4,513,1563013304758,Y,3092,0
223,1,p5,practice,practice_5,,/+/The young lady * sent a red rose * became * really embarrassed./,Did the lady send a red rose?,N,,1,5,a,6,2,5,10,2,2,4,487,1563013305245,Y,3092,0
223,1,p5,practice,practice_5,,/+/The young lady * sent a red rose * became * really embarrassed./,Did the lady send a red rose?,N,,1,5,red,7,2,6,10,2,3,4,537,1563013305782,Y,3092,0
223,1,p5,practice,practice_5,,/+/The young lady * sent a red rose * became * really embarrassed./,Did the lady send a red rose?,N,,1,5,rose,8,2,7,10,2,4,4,752,1563013306534,Y,3092,0
223,1,p5,practice,practice_5,,/+/The young lady * sent a red rose * became * really embarrassed./,Did the lady send a red rose?,N,,1,5,became,9,2,8,10,3,1,1,552,1563013307086,Y,3092,0
223,1,p5,practice,practice_5,,/+/The young lady * sent a red rose * became * really embarrassed./,Did the lady send a red rose?,N,,1,5,really,10,2,9,10,4,1,2,688,1563013307774,Y,3092,0
223,1,p5,practice,practice_5,,/+/The young lady * sent a red rose * became * really embarrassed./,Did the lady send a red rose?,N,,1,5,embarrassed.,11,2,10,10,4,2,2,1200,1563013308974,Y,3092,0
223,1,p6,practice,practice_6,,/+/The busy workers * who were * offered a delicious pizza * felt * not so hungry./,Did someone offer the workers a pizza?,Y,,1,6,+,1,1,1,1,1,1,1,1166,1563013387286,Y,5021,1
223,1,p6,practice,practice_6,,/+/The busy workers * who were * offered a delicious pizza * felt * not so hungry./,Did someone offer the workers a pizza?,Y,,1,6,The,2,2,1,13,1,1,3,456,1563013387742,Y,5021,1
223,1,p6,practice,practice_6,,/+/The busy workers * who were * offered a delicious pizza * felt * not so hungry./,Did someone offer the workers a pizza?,Y,,1,6,busy,3,2,2,13,1,2,3,591,1563013388333,Y,5021,1
223,1,p6,practice,practice_6,,/+/The busy workers * who were * offered a delicious pizza * felt * not so hungry./,Did someone offer the workers a pizza?,Y,,1,6,workers,4,2,3,13,1,3,3,1128,1563013389461,Y,5021,1
223,1,p6,practice,practice_6,,/+/The busy workers * who were * offered a delicious pizza * felt * not so hungry./,Did someone offer the workers a pizza?,Y,,1,6,who,5,2,4,13,2,1,2,769,1563013390230,Y,5021,1
223,1,p6,practice,practice_6,,/+/The busy workers * who were * offered a delicious pizza * felt * not so hungry./,Did someone offer the workers a pizza?,Y,,1,6,were,6,2,5,13,2,2,2,648,1563013390878,Y,5021,1
223,1,p6,practice,practice_6,,/+/The busy workers * who were * offered a delicious pizza * felt * not so hungry./,Did someone offer the workers a pizza?,Y,,1,6,offered,7,2,6,13,3,1,4,1056,1563013391934,Y,5021,1
223,1,p6,practice,practice_6,,/+/The busy workers * who were * offered a delicious pizza * felt * not so hungry./,Did someone offer the workers a pizza?,Y,,1,6,a,8,2,7,13,3,2,4,928,1563013392862,Y,5021,1
223,1,p6,practice,practice_6,,/+/The busy workers * who were * offered a delicious pizza * felt * not so hungry./,Did someone offer the workers a pizza?,Y,,1,6,delicious,9,2,8,13,3,3,4,1072,1563013393934,Y,5021,1
223,1,p6,practice,practice_6,,/+/The busy workers * who were * offered a delicious pizza * felt * not so hungry./,Did someone offer the workers a pizza?,Y,,1,6,pizza,10,2,9,13,3,4,4,736,1563013394670,Y,5021,1
223,1,p6,practice,practice_6,,/+/The busy workers * who were * offered a delicious pizza * felt * not so hungry./,Did someone offer the workers a pizza?,Y,,1,6,felt,11,2,10,13,4,1,1,624,1563013395294,Y,5021,1
223,1,p6,practice,practice_6,,/+/The busy workers * who were * offered a delicious pizza * felt * not so hungry./,Did someone offer the workers a pizza?,Y,,1,6,not,12,2,11,13,5,1,3,848,1563013396142,Y,5021,1
223,1,p6,practice,practice_6,,/+/The busy workers * who were * offered a delicious pizza * felt * not so hungry./,Did someone offer the workers a pizza?,Y,,1,6,so,13,2,12,13,5,2,3,544,1563013396686,Y,5021,1
223,1,p6,practice,practice_6,,/+/The busy workers * who were * offered a delicious pizza * felt * not so hungry./,Did someone offer the workers a pizza?,Y,,1,6,hungry.,14,2,13,13,5,3,3,871,1563013397557,Y,5021,1
223,1,1,filler,filler_6,,/+/The girl sang very well through learning experiences from her tutor./,Did the girl's tutor do a lot of help? ,Y,练习结束，现在开始正式实验。,0,7,+,1,1,1,1,1,1,1,3446,1563013422837,Y,5803,1
223,1,1,filler,filler_6,,/+/The girl sang very well through learning experiences from her tutor./,Did the girl's tutor do a lot of help? ,Y,练习结束，现在开始正式实验。,0,7,The,2,2,1,11,1,1,11,593,1563013423430,Y,5803,1
223,1,1,filler,filler_6,,/+/The girl sang very well through learning experiences from her tutor./,Did the girl's tutor do a lot of help? ,Y,练习结束，现在开始正式实验。,0,7,girl,3,2,2,11,1,2,11,1079,1563013424509,Y,5803,1
223,1,1,filler,filler_6,,/+/The girl sang very well through learning experiences from her tutor./,Did the girl's tutor do a lot of help? ,Y,练习结束，现在开始正式实验。,0,7,sang,4,2,3,11,1,3,11,839,1563013425349,Y,5803,1
223,1,1,filler,filler_6,,/+/The girl sang very well through learning experiences from her tutor./,Did the girl's tutor do a lot of help? ,Y,练习结束，现在开始正式实验。,0,7,very,5,2,4,11,1,4,11,631,1563013425981,Y,5803,1
223,1,1,filler,filler_6,,/+/The girl sang very well through learning experiences from her tutor./,Did the girl's tutor do a lot of help? ,Y,练习结束，现在开始正式实验。,0,7,well,6,2,5,11,1,5,11,648,1563013426629,Y,5803,1
223,1,1,filler,filler_6,,/+/The girl sang very well through learning experiences from her tutor./,Did the girl's tutor do a lot of help? ,Y,练习结束，现在开始正式实验。,0,7,through,7,2,6,11,1,6,11,1823,1563013428453,Y,5803,1
223,1,1,filler,filler_6,,/+/The girl sang very well through learning experiences from her tutor./,Did the girl's tutor do a lot of help? ,Y,练习结束，现在开始正式实验。,0,7,learning,8,2,7,11,1,7,11,887,1563013429341,Y,5803,1
223,1,1,filler,filler_6,,/+/The girl sang very well through learning experiences from her tutor./,Did the girl's tutor do a lot of help? ,Y,练习结束，现在开始正式实验。,0,7,experiences,9,2,8,11,1,8,11,1072,1563013430414,Y,5803,1
223,1,1,filler,filler_6,,/+/The girl sang very well through learning experiences from her tutor./,Did the girl's tutor do a lot of help? ,Y,练习结束，现在开始正式实验。,0,7,from,10,2,9,11,1,9,11,959,1563013431373,Y,5803,1
223,1,1,filler,filler_6,,/+/The girl sang very well through learning experiences from her tutor./,Did the girl's tutor do a lot of help? ,Y,练习结束，现在开始正式实验。,0,7,her,11,2,10,11,1,10,11,567,1563013431941,Y,5803,1
223,1,1,filler,filler_6,,/+/The girl sang very well through learning experiences from her tutor./,Did the girl's tutor do a lot of help? ,Y,练习结束，现在开始正式实验。,0,7,tutor.,12,2,11,11,1,11,11,1504,1563013433445,Y,5803,1
223,1,2,filler,filler_7,,/+/Some important papers which lay in the office were stolen last night./,Were the papers still safe?,N,,0,8,+,1,1,1,1,1,1,1,951,1563013440701,N,2540,1
223,1,2,filler,filler_7,,/+/Some important papers which lay in the office were stolen last night./,Were the papers still safe?,N,,0,8,Some,2,2,1,12,1,1,12,448,1563013441149,N,2540,1
223,1,2,filler,filler_7,,/+/Some important papers which lay in the office were stolen last night./,Were the papers still safe?,N,,0,8,important,3,2,2,12,1,2,12,776,1563013441925,N,2540,1
223,1,2,filler,filler_7,,/+/Some important papers which lay in the office were stolen last night./,Were the papers still safe?,N,,0,8,papers,4,2,3,12,1,3,12,1064,1563013442989,N,2540,1
223,1,2,filler,filler_7,,/+/Some important papers which lay in the office were stolen last night./,Were the papers still safe?,N,,0,8,which,5,2,4,12,1,4,12,799,1563013443789,N,2540,1
223,1,2,filler,filler_7,,/+/Some important papers which lay in the office were stolen last night./,Were the papers still safe?,N,,0,8,lay,6,2,5,12,1,5,12,584,1563013444373,N,2540,1
223,1,2,filler,filler_7,,/+/Some important papers which lay in the office were stolen last night./,Were the papers still safe?,N,,0,8,in,7,2,6,12,1,6,12,944,1563013445317,N,2540,1
223,1,2,filler,filler_7,,/+/Some important papers which lay in the office were stolen last night./,Were the papers still safe?,N,,0,8,the,8,2,7,12,1,7,12,719,1563013446037,N,2540,1
223,1,2,filler,filler_7,,/+/Some important papers which lay in the office were stolen last night./,Were the papers still safe?,N,,0,8,office,9,2,8,12,1,8,12,930,1563013446967,N,2540,1
223,1,2,filler,filler_7,,/+/Some important papers which lay in the office were stolen last night./,Were the papers still safe?,N,,0,8,were,10,2,9,12,1,9,12,616,1563013447583,N,2540,1
223,1,2,filler,filler_7,,/+/Some important papers which lay in the office were stolen last night./,Were the papers still safe?,N,,0,8,stolen,11,2,10,12,1,10,12,880,1563013448463,N,2540,1
223,1,2,filler,filler_7,,/+/Some important papers which lay in the office were stolen last night./,Were the papers still safe?,N,,0,8,last,12,2,11,12,1,11,12,648,1563013449111,N,2540,1
223,1,2,filler,filler_7,,/+/Some important papers which lay in the office were stolen last night./,Were the papers still safe?,N,,0,8,night.,13,2,12,12,1,12,12,528,1563013449639,N,2540,1
223,1,3,target,target_1,G,/+/The cotton farmers * warned about the bad floods * had * no other crops./,Did the farmers warn about the floods?,N,,0,9,+,1,1,1,1,1,1,1,735,1563013453415,Y,4826,0
223,1,3,target,target_1,G,/+/The cotton farmers * warned about the bad floods * had * no other crops./,Did the farmers warn about the floods?,N,,0,9,The,2,2,1,12,1,1,3,863,1563013454278,Y,4826,0
223,1,3,target,target_1,G,/+/The cotton farmers * warned about the bad floods * had * no other crops./,Did the farmers warn about the floods?,N,,0,9,cotton,3,2,2,12,1,2,3,1193,1563013455471,Y,4826,0
223,1,3,target,target_1,G,/+/The cotton farmers * warned about the bad floods * had * no other crops./,Did the farmers warn about the floods?,N,,0,9,farmers,4,2,3,12,1,3,3,688,1563013456159,Y,4826,0
223,1,3,target,target_1,G,/+/The cotton farmers * warned about the bad floods * had * no other crops./,Did the farmers warn about the floods?,N,,0,9,warned,5,2,4,12,2,1,5,2119,1563013458278,Y,4826,0
223,1,3,target,target_1,G,/+/The cotton farmers * warned about the bad floods * had * no other crops./,Did the farmers warn about the floods?,N,,0,9,about,6,2,5,12,2,2,5,913,1563013459191,Y,4826,0
223,1,3,target,target_1,G,/+/The cotton farmers * warned about the bad floods * had * no other crops./,Did the farmers warn about the floods?,N,,0,9,the,7,2,6,12,2,3,5,687,1563013459878,Y,4826,0
223,1,3,target,target_1,G,/+/The cotton farmers * warned about the bad floods * had * no other crops./,Did the farmers warn about the floods?,N,,0,9,bad,8,2,7,12,2,4,5,807,1563013460686,Y,4826,0
223,1,3,target,target_1,G,/+/The cotton farmers * warned about the bad floods * had * no other crops./,Did the farmers warn about the floods?,N,,0,9,floods,9,2,8,12,2,5,5,895,1563013461582,Y,4826,0
223,1,3,target,target_1,G,/+/The cotton farmers * warned about the bad floods * had * no other crops./,Did the farmers warn about the floods?,N,,0,9,had,10,2,9,12,3,1,1,743,1563013462326,Y,4826,0
223,1,3,target,target_1,G,/+/The cotton farmers * warned about the bad floods * had * no other crops./,Did the farmers warn about the floods?,N,,0,9,no,11,2,10,12,4,1,3,575,1563013462902,Y,4826,0
223,1,3,target,target_1,G,/+/The cotton farmers * warned about the bad floods * had * no other crops./,Did the farmers warn about the floods?,N,,0,9,other,12,2,11,12,4,2,3,847,1563013463750,Y,4826,0
223,1,3,target,target_1,G,/+/The cotton farmers * warned about the bad floods * had * no other crops./,Did the farmers warn about the floods?,N,,0,9,crops.,13,2,12,12,4,3,3,1215,1563013464966,Y,4826,0
223,1,4,filler,filler_10,,/+/There was a big hole in the road which blocked the traffic./,Was there a big hole in the road?,Y,,0,10,+,1,1,1,1,1,1,1,822,1563013471118,Y,3170,1
223,1,4,filler,filler_10,,/+/There was a big hole in the road which blocked the traffic./,Was there a big hole in the road?,Y,,0,10,There,2,2,1,12,1,1,12,671,1563013471790,Y,3170,1
223,1,4,filler,filler_10,,/+/There was a big hole in the road which blocked the traffic./,Was there a big hole in the road?,Y,,0,10,was,3,2,2,12,1,2,12,839,1563013472630,Y,3170,1
223,1,4,filler,filler_10,,/+/There was a big hole in the road which blocked the traffic./,Was there a big hole in the road?,Y,,0,10,a,4,2,3,12,1,3,12,744,1563013473374,Y,3170,1
223,1,4,filler,filler_10,,/+/There was a big hole in the road which blocked the traffic./,Was there a big hole in the road?,Y,,0,10,big,5,2,4,12,1,4,12,583,1563013473958,Y,3170,1
223,1,4,filler,filler_10,,/+/There was a big hole in the road which blocked the traffic./,Was there a big hole in the road?,Y,,0,10,hole,6,2,5,12,1,5,12,646,1563013474605,Y,3170,1
223,1,4,filler,filler_10,,/+/There was a big hole in the road which blocked the traffic./,Was there a big hole in the road?,Y,,0,10,in,7,2,6,12,1,6,12,608,1563013475214,Y,3170,1
223,1,4,filler,filler_10,,/+/There was a big hole in the road which blocked the traffic./,Was there a big hole in the road?,Y,,0,10,the,8,2,7,12,1,7,12,1232,1563013476446,Y,3170,1
223,1,4,filler,filler_10,,/+/There was a big hole in the road which blocked the traffic./,Was there a big hole in the road?,Y,,0,10,road,9,2,8,12,1,8,12,1048,1563013477494,Y,3170,1
223,1,4,filler,filler_10,,/+/There was a big hole in the road which blocked the traffic./,Was there a big hole in the road?,Y,,0,10,which,10,2,9,12,1,9,12,888,1563013478382,Y,3170,1
223,1,4,filler,filler_10,,/+/There was a big hole in the road which blocked the traffic./,Was there a big hole in the road?,Y,,0,10,blocked,11,2,10,12,1,10,12,2896,1563013481278,Y,3170,1
223,1,4,filler,filler_10,,/+/There was a big hole in the road which blocked the traffic./,Was there a big hole in the road?,Y,,0,10,the,12,2,11,12,1,11,12,1039,1563013482318,Y,3170,1
223,1,4,filler,filler_10,,/+/There was a big hole in the road which blocked the traffic./,Was there a big hole in the road?,Y,,0,10,traffic.,13,2,12,12,1,12,12,944,1563013483262,Y,3170,1
223,1,5,target,target_2,C,/+/The sunburned boys * who were * served the hot dogs * got * a stomach ache./,Did the boys serve the hot dogs?,N,,0,11,+,1,1,1,1,1,1,1,933,1563013487869,N,2427,1
223,1,5,target,target_2,C,/+/The sunburned boys * who were * served the hot dogs * got * a stomach ache./,Did the boys serve the hot dogs?,N,,0,11,The,2,2,1,13,1,1,3,561,1563013488430,N,2427,1
223,1,5,target,target_2,C,/+/The sunburned boys * who were * served the hot dogs * got * a stomach ache./,Did the boys serve the hot dogs?,N,,0,11,sunburned,3,2,2,13,1,2,3,1520,1563013489950,N,2427,1
223,1,5,target,target_2,C,/+/The sunburned boys * who were * served the hot dogs * got * a stomach ache./,Did the boys serve the hot dogs?,N,,0,11,boys,4,2,3,13,1,3,3,991,1563013490941,N,2427,1
223,1,5,target,target_2,C,/+/The sunburned boys * who were * served the hot dogs * got * a stomach ache./,Did the boys serve the hot dogs?,N,,0,11,who,5,2,4,13,2,1,2,943,1563013491885,N,2427,1
223,1,5,target,target_2,C,/+/The sunburned boys * who were * served the hot dogs * got * a stomach ache./,Did the boys serve the hot dogs?,N,,0,11,were,6,2,5,13,2,2,2,608,1563013492494,N,2427,1
223,1,5,target,target_2,C,/+/The sunburned boys * who were * served the hot dogs * got * a stomach ache./,Did the boys serve the hot dogs?,N,,0,11,served,7,2,6,13,3,1,4,1520,1563013494014,N,2427,1
223,1,5,target,target_2,C,/+/The sunburned boys * who were * served the hot dogs * got * a stomach ache./,Did the boys serve the hot dogs?,N,,0,11,the,8,2,7,13,3,2,4,752,1563013494766,N,2427,1
223,1,5,target,target_2,C,/+/The sunburned boys * who were * served the hot dogs * got * a stomach ache./,Did the boys serve the hot dogs?,N,,0,11,hot,9,2,8,13,3,3,4,680,1563013495446,N,2427,1
223,1,5,target,target_2,C,/+/The sunburned boys * who were * served the hot dogs * got * a stomach ache./,Did the boys serve the hot dogs?,N,,0,11,dogs,10,2,9,13,3,4,4,1168,1563013496614,N,2427,1
223,1,5,target,target_2,C,/+/The sunburned boys * who were * served the hot dogs * got * a stomach ache./,Did the boys serve the hot dogs?,N,,0,11,got,11,2,10,13,4,1,1,632,1563013497246,N,2427,1
223,1,5,target,target_2,C,/+/The sunburned boys * who were * served the hot dogs * got * a stomach ache./,Did the boys serve the hot dogs?,N,,0,11,a,12,2,11,13,5,1,3,536,1563013497782,N,2427,1
223,1,5,target,target_2,C,/+/The sunburned boys * who were * served the hot dogs * got * a stomach ache./,Did the boys serve the hot dogs?,N,,0,11,stomach,13,2,12,13,5,2,3,872,1563013498654,N,2427,1
223,1,5,target,target_2,C,/+/The sunburned boys * who were * served the hot dogs * got * a stomach ache./,Did the boys serve the hot dogs?,N,,0,11,ache.,14,2,13,13,5,3,3,856,1563013499510,N,2427,1
223,1,6,filler,filler_17,,/+/The students who failed the exam were asked to take it again./,Should all students take the exam again?,N,,0,12,+,1,1,1,1,1,1,1,606,1563013503045,N,3427,1
223,1,6,filler,filler_17,,/+/The students who failed the exam were asked to take it again./,Should all students take the exam again?,N,,0,12,The,2,2,1,12,1,1,12,769,1563013503814,N,3427,1
223,1,6,filler,filler_17,,/+/The students who failed the exam were asked to take it again./,Should all students take the exam again?,N,,0,12,students,3,2,2,12,1,2,12,952,1563013504766,N,3427,1
223,1,6,filler,filler_17,,/+/The students who failed the exam were asked to take it again./,Should all students take the exam again?,N,,0,12,who,4,2,3,12,1,3,12,648,1563013505414,N,3427,1
223,1,6,filler,filler_17,,/+/The students who failed the exam were asked to take it again./,Should all students take the exam again?,N,,0,12,failed,5,2,4,12,1,4,12,984,1563013506398,N,3427,1
223,1,6,filler,filler_17,,/+/The students who failed the exam were asked to take it again./,Should all students take the exam again?,N,,0,12,the,6,2,5,12,1,5,12,528,1563013506926,N,3427,1
223,1,6,filler,filler_17,,/+/The students who failed the exam were asked to take it again./,Should all students take the exam again?,N,,0,12,exam,7,2,6,12,1,6,12,1112,1563013508038,N,3427,1
223,1,6,filler,filler_17,,/+/The students who failed the exam were asked to take it again./,Should all students take the exam again?,N,,0,12,were,8,2,7,12,1,7,12,560,1563013508598,N,3427,1
223,1,6,filler,filler_17,,/+/The students who failed the exam were asked to take it again./,Should all students take the exam again?,N,,0,12,asked,9,2,8,12,1,8,12,752,1563013509350,N,3427,1
223,1,6,filler,filler_17,,/+/The students who failed the exam were asked to take it again./,Should all students take the exam again?,N,,0,12,to,10,2,9,12,1,9,12,512,1563013509862,N,3427,1
223,1,6,filler,filler_17,,/+/The students who failed the exam were asked to take it again./,Should all students take the exam again?,N,,0,12,take,11,2,10,12,1,10,12,512,1563013510374,N,3427,1
223,1,6,filler,filler_17,,/+/The students who failed the exam were asked to take it again./,Should all students take the exam again?,N,,0,12,it,12,2,11,12,1,11,12,440,1563013510814,N,3427,1
223,1,6,filler,filler_17,,/+/The students who failed the exam were asked to take it again./,Should all students take the exam again?,N,,0,12,again.,13,2,12,12,1,12,12,872,1563013511686,N,3427,1
223,1,7,filler,filler_25,,/+/The suitcase which Mike bought has been broken down by his son./,Has the suitcase been broken by Mike?,N,,0,13,+,1,1,1,1,1,1,1,510,1563013516125,N,3172,1
223,1,7,filler,filler_25,,/+/The suitcase which Mike bought has been broken down by his son./,Has the suitcase been broken by Mike?,N,,0,13,The,2,2,1,12,1,1,12,713,1563013516838,N,3172,1
223,1,7,filler,filler_25,,/+/The suitcase which Mike bought has been broken down by his son./,Has the suitcase been broken by Mike?,N,,0,13,suitcase,3,2,2,12,1,2,12,2304,1563013519142,N,3172,1
223,1,7,filler,filler_25,,/+/The suitcase which Mike bought has been broken down by his son./,Has the suitcase been broken by Mike?,N,,0,13,which,4,2,3,12,1,3,12,1047,1563013520189,N,3172,1
223,1,7,filler,filler_25,,/+/The suitcase which Mike bought has been broken down by his son./,Has the suitcase been broken by Mike?,N,,0,13,Mike,5,2,4,12,1,4,12,752,1563013520942,N,3172,1
223,1,7,filler,filler_25,,/+/The suitcase which Mike bought has been broken down by his son./,Has the suitcase been broken by Mike?,N,,0,13,bought,6,2,5,12,1,5,12,672,1563013521614,N,3172,1
223,1,7,filler,filler_25,,/+/The suitcase which Mike bought has been broken down by his son./,Has the suitcase been broken by Mike?,N,,0,13,has,7,2,6,12,1,6,12,727,1563013522341,N,3172,1
223,1,7,filler,filler_25,,/+/The suitcase which Mike bought has been broken down by his son./,Has the suitcase been broken by Mike?,N,,0,13,been,8,2,7,12,1,7,12,489,1563013522830,N,3172,1
223,1,7,filler,filler_25,,/+/The suitcase which Mike bought has been broken down by his son./,Has the suitcase been broken by Mike?,N,,0,13,broken,9,2,8,12,1,8,12,672,1563013523502,N,3172,1
223,1,7,filler,filler_25,,/+/The suitcase which Mike bought has been broken down by his son./,Has the suitcase been broken by Mike?,N,,0,13,down,10,2,9,12,1,9,12,799,1563013524301,N,3172,1
223,1,7,filler,filler_25,,/+/The suitcase which Mike bought has been broken down by his son./,Has the suitcase been broken by Mike?,N,,0,13,by,11,2,10,12,1,10,12,545,1563013524846,N,3172,1
223,1,7,filler,filler_25,,/+/The suitcase which Mike bought has been broken down by his son./,Has the suitcase been broken by Mike?,N,,0,13,his,12,2,11,12,1,11,12,776,1563013525622,N,3172,1
223,1,7,filler,filler_25,,/+/The suitcase which Mike bought has been broken down by his son./,Has the suitcase been broken by Mike?,N,,0,13,son.,13,2,12,12,1,12,12,783,1563013526405,N,3172,1
223,1,8,filler,filler_24,,/+/The roommate has married the man who comes from the west of China./,Has the roomate married?,Y,,0,14,+,1,1,1,1,1,1,1,559,1563013530638,N,3306,0
223,1,8,filler,filler_24,,/+/The roommate has married the man who comes from the west of China./,Has the roomate married?,Y,,0,14,The,2,2,1,13,1,1,13,671,1563013531309,N,3306,0
223,1,8,filler,filler_24,,/+/The roommate has married the man who comes from the west of China./,Has the roomate married?,Y,,0,14,roommate,3,2,2,13,1,2,13,817,1563013532126,N,3306,0
223,1,8,filler,filler_24,,/+/The roommate has married the man who comes from the west of China./,Has the roomate married?,Y,,0,14,has,4,2,3,13,1,3,13,568,1563013532694,N,3306,0
223,1,8,filler,filler_24,,/+/The roommate has married the man who comes from the west of China./,Has the roomate married?,Y,,0,14,married,5,2,4,13,1,4,13,1272,1563013533966,N,3306,0
223,1,8,filler,filler_24,,/+/The roommate has married the man who comes from the west of China./,Has the roomate married?,Y,,0,14,the,6,2,5,13,1,5,13,896,1563013534862,N,3306,0
223,1,8,filler,filler_24,,/+/The roommate has married the man who comes from the west of China./,Has the roomate married?,Y,,0,14,man,7,2,6,13,1,6,13,615,1563013535477,N,3306,0
223,1,8,filler,filler_24,,/+/The roommate has married the man who comes from the west of China./,Has the roomate married?,Y,,0,14,who,8,2,7,13,1,7,13,497,1563013535974,N,3306,0
223,1,8,filler,filler_24,,/+/The roommate has married the man who comes from the west of China./,Has the roomate married?,Y,,0,14,comes,9,2,8,13,1,8,13,664,1563013536638,N,3306,0
223,1,8,filler,filler_24,,/+/The roommate has married the man who comes from the west of China./,Has the roomate married?,Y,,0,14,from,10,2,9,13,1,9,13,552,1563013537190,N,3306,0
223,1,8,filler,filler_24,,/+/The roommate has married the man who comes from the west of China./,Has the roomate married?,Y,,0,14,the,11,2,10,13,1,10,13,504,1563013537694,N,3306,0
223,1,8,filler,filler_24,,/+/The roommate has married the man who comes from the west of China./,Has the roomate married?,Y,,0,14,west,12,2,11,13,1,11,13,952,1563013538646,N,3306,0
223,1,8,filler,filler_24,,/+/The roommate has married the man who comes from the west of China./,Has the roomate married?,Y,,0,14,of,13,2,12,13,1,12,13,536,1563013539182,N,3306,0
223,1,8,filler,filler_24,,/+/The roommate has married the man who comes from the west of China./,Has the roomate married?,Y,,0,14,China.,14,2,13,13,1,13,13,576,1563013539758,N,3306,0
223,1,9,target,target_15,G,/+/The confused student * asked about a question * lowered * his head silently./,Did the student ask about a question?,N,,0,15,+,1,1,1,1,1,1,1,560,1563013544126,N,3611,1
223,1,9,target,target_15,G,/+/The confused student * asked about a question * lowered * his head silently./,Did the student ask about a question?,N,,0,15,The,2,2,1,11,1,1,3,1423,1563013545549,N,3611,1
223,1,9,target,target_15,G,/+/The confused student * asked about a question * lowered * his head silently./,Did the student ask about a question?,N,,0,15,confused,3,2,2,11,1,2,3,1072,1563013546621,N,3611,1
223,1,9,target,target_15,G,/+/The confused student * asked about a question * lowered * his head silently./,Did the student ask about a question?,N,,0,15,student,4,2,3,11,1,3,3,721,1563013547342,N,3611,1
223,1,9,target,target_15,G,/+/The confused student * asked about a question * lowered * his head silently./,Did the student ask about a question?,N,,0,15,asked,5,2,4,11,2,1,4,640,1563013547982,N,3611,1
223,1,9,target,target_15,G,/+/The confused student * asked about a question * lowered * his head silently./,Did the student ask about a question?,N,,0,15,about,6,2,5,11,2,2,4,504,1563013548486,N,3611,1
223,1,9,target,target_15,G,/+/The confused student * asked about a question * lowered * his head silently./,Did the student ask about a question?,N,,0,15,a,7,2,6,11,2,3,4,456,1563013548942,N,3611,1
223,1,9,target,target_15,G,/+/The confused student * asked about a question * lowered * his head silently./,Did the student ask about a question?,N,,0,15,question,8,2,7,11,2,4,4,504,1563013549446,N,3611,1
223,1,9,target,target_15,G,/+/The confused student * asked about a question * lowered * his head silently./,Did the student ask about a question?,N,,0,15,lowered,9,2,8,11,3,1,1,856,1563013550302,N,3611,1
223,1,9,target,target_15,G,/+/The confused student * asked about a question * lowered * his head silently./,Did the student ask about a question?,N,,0,15,his,10,2,9,11,4,1,3,560,1563013550862,N,3611,1
223,1,9,target,target_15,G,/+/The confused student * asked about a question * lowered * his head silently./,Did the student ask about a question?,N,,0,15,head,11,2,10,11,4,2,3,608,1563013551470,N,3611,1
223,1,9,target,target_15,G,/+/The confused student * asked about a question * lowered * his head silently./,Did the student ask about a question?,N,,0,15,silently.,12,2,11,11,4,3,3,1328,1563013552798,N,3611,1
223,1,10,filler,filler_22,,/+/The girl's life was saved because the doctor acted so well./,Did the girl die?,N,,0,16,+,1,1,1,1,1,1,1,958,1563013557869,N,1812,1
223,1,10,filler,filler_22,,/+/The girl's life was saved because the doctor acted so well./,Did the girl die?,N,,0,16,The,2,2,1,11,1,1,11,441,1563013558310,N,1812,1
223,1,10,filler,filler_22,,/+/The girl's life was saved because the doctor acted so well./,Did the girl die?,N,,0,16,girl's,3,2,2,11,1,2,11,712,1563013559022,N,1812,1
223,1,10,filler,filler_22,,/+/The girl's life was saved because the doctor acted so well./,Did the girl die?,N,,0,16,life,4,2,3,11,1,3,11,1192,1563013560214,N,1812,1
223,1,10,filler,filler_22,,/+/The girl's life was saved because the doctor acted so well./,Did the girl die?,N,,0,16,was,5,2,4,11,1,4,11,631,1563013560845,N,1812,1
223,1,10,filler,filler_22,,/+/The girl's life was saved because the doctor acted so well./,Did the girl die?,N,,0,16,saved,6,2,5,11,1,5,11,872,1563013561717,N,1812,1
223,1,10,filler,filler_22,,/+/The girl's life was saved because the doctor acted so well./,Did the girl die?,N,,0,16,because,7,2,6,11,1,6,11,689,1563013562406,N,1812,1
223,1,10,filler,filler_22,,/+/The girl's life was saved because the doctor acted so well./,Did the girl die?,N,,0,16,the,8,2,7,11,1,7,11,648,1563013563054,N,1812,1
223,1,10,filler,filler_22,,/+/The girl's life was saved because the doctor acted so well./,Did the girl die?,N,,0,16,doctor,9,2,8,11,1,8,11,560,1563013563614,N,1812,1
223,1,10,filler,filler_22,,/+/The girl's life was saved because the doctor acted so well./,Did the girl die?,N,,0,16,acted,10,2,9,11,1,9,11,944,1563013564558,N,1812,1
223,1,10,filler,filler_22,,/+/The girl's life was saved because the doctor acted so well./,Did the girl die?,N,,0,16,so,11,2,10,11,1,10,11,584,1563013565142,N,1812,1
223,1,10,filler,filler_22,,/+/The girl's life was saved because the doctor acted so well./,Did the girl die?,N,,0,16,well.,12,2,11,11,1,11,11,624,1563013565766,N,1812,1
223,1,11,target,target_4,G,/+/The convicted criminal * watched at the railway station * was * following the boy./,Did someone watch the criminal?,Y,,0,17,+,1,1,1,1,1,1,1,1591,1563013569671,Y,2452,1
223,1,11,target,target_4,G,/+/The convicted criminal * watched at the railway station * was * following the boy./,Did someone watch the criminal?,Y,,0,17,The,2,2,1,12,1,1,3,392,1563013570063,Y,2452,1
223,1,11,target,target_4,G,/+/The convicted criminal * watched at the railway station * was * following the boy./,Did someone watch the criminal?,Y,,0,17,convicted,3,2,2,12,1,2,3,1216,1563013571279,Y,2452,1
223,1,11,target,target_4,G,/+/The convicted criminal * watched at the railway station * was * following the boy./,Did someone watch the criminal?,Y,,0,17,criminal,4,2,3,12,1,3,3,1152,1563013572431,Y,2452,1
223,1,11,target,target_4,G,/+/The convicted criminal * watched at the railway station * was * following the boy./,Did someone watch the criminal?,Y,,0,17,watched,5,2,4,12,2,1,5,784,1563013573215,Y,2452,1
223,1,11,target,target_4,G,/+/The convicted criminal * watched at the railway station * was * following the boy./,Did someone watch the criminal?,Y,,0,17,at,6,2,5,12,2,2,5,456,1563013573671,Y,2452,1
223,1,11,target,target_4,G,/+/The convicted criminal * watched at the railway station * was * following the boy./,Did someone watch the criminal?,Y,,0,17,the,7,2,6,12,2,3,5,520,1563013574191,Y,2452,1
223,1,11,target,target_4,G,/+/The convicted criminal * watched at the railway station * was * following the boy./,Did someone watch the criminal?,Y,,0,17,railway,8,2,7,12,2,4,5,1680,1563013575871,Y,2452,1
223,1,11,target,target_4,G,/+/The convicted criminal * watched at the railway station * was * following the boy./,Did someone watch the criminal?,Y,,0,17,station,9,2,8,12,2,5,5,608,1563013576479,Y,2452,1
223,1,11,target,target_4,G,/+/The convicted criminal * watched at the railway station * was * following the boy./,Did someone watch the criminal?,Y,,0,17,was,10,2,9,12,3,1,1,776,1563013577255,Y,2452,1
223,1,11,target,target_4,G,/+/The convicted criminal * watched at the railway station * was * following the boy./,Did someone watch the criminal?,Y,,0,17,following,11,2,10,12,4,1,3,735,1563013577990,Y,2452,1
223,1,11,target,target_4,G,/+/The convicted criminal * watched at the railway station * was * following the boy./,Did someone watch the criminal?,Y,,0,17,the,12,2,11,12,4,2,3,609,1563013578599,Y,2452,1
223,1,11,target,target_4,G,/+/The convicted criminal * watched at the railway station * was * following the boy./,Did someone watch the criminal?,Y,,0,17,boy.,13,2,12,12,4,3,3,1736,1563013580335,Y,2452,1
223,1,11,target,target_4,G,/+/The convicted criminal * watched at the railway station * was * following the boy./,Did someone watch the criminal?,Y,,0,17,the,14,2,11,12,4,2,3,1064,1563013581399,Y,2452,1
223,1,11,target,target_4,G,/+/The convicted criminal * watched at the railway station * was * following the boy./,Did someone watch the criminal?,Y,,0,17,following,15,2,10,12,4,1,3,216,1563013581615,Y,2452,1
223,1,11,target,target_4,G,/+/The convicted criminal * watched at the railway station * was * following the boy./,Did someone watch the criminal?,Y,,0,17,was,16,2,9,12,3,1,1,248,1563013581863,Y,2452,1
223,1,11,target,target_4,G,/+/The convicted criminal * watched at the railway station * was * following the boy./,Did someone watch the criminal?,Y,,0,17,station,17,2,8,12,2,5,5,191,1563013582054,Y,2452,1
223,1,11,target,target_4,G,/+/The convicted criminal * watched at the railway station * was * following the boy./,Did someone watch the criminal?,Y,,0,17,railway,18,2,7,12,2,4,5,225,1563013582279,Y,2452,1
223,1,11,target,target_4,G,/+/The convicted criminal * watched at the railway station * was * following the boy./,Did someone watch the criminal?,Y,,0,17,the,19,2,6,12,2,3,5,224,1563013582503,Y,2452,1
223,1,11,target,target_4,G,/+/The convicted criminal * watched at the railway station * was * following the boy./,Did someone watch the criminal?,Y,,0,17,at,20,2,5,12,2,2,5,224,1563013582727,Y,2452,1
223,1,11,target,target_4,G,/+/The convicted criminal * watched at the railway station * was * following the boy./,Did someone watch the criminal?,Y,,0,17,watched,21,2,4,12,2,1,5,240,1563013582967,Y,2452,1
223,1,11,target,target_4,G,/+/The convicted criminal * watched at the railway station * was * following the boy./,Did someone watch the criminal?,Y,,0,17,criminal,22,2,3,12,1,3,3,384,1563013583351,Y,2452,1
223,1,11,target,target_4,G,/+/The convicted criminal * watched at the railway station * was * following the boy./,Did someone watch the criminal?,Y,,0,17,convicted,23,2,2,12,1,2,3,336,1563013583687,Y,2452,1
223,1,11,target,target_4,G,/+/The convicted criminal * watched at the railway station * was * following the boy./,Did someone watch the criminal?,Y,,0,17,The,24,2,1,12,1,1,3,816,1563013584503,Y,2452,1
223,1,11,target,target_4,G,/+/The convicted criminal * watched at the railway station * was * following the boy./,Did someone watch the criminal?,Y,,0,17,convicted,25,2,2,12,1,2,3,1264,1563013585767,Y,2452,1
223,1,11,target,target_4,G,/+/The convicted criminal * watched at the railway station * was * following the boy./,Did someone watch the criminal?,Y,,0,17,criminal,26,2,3,12,1,3,3,904,1563013586671,Y,2452,1
223,1,11,target,target_4,G,/+/The convicted criminal * watched at the railway station * was * following the boy./,Did someone watch the criminal?,Y,,0,17,watched,27,2,4,12,2,1,5,856,1563013587527,Y,2452,1
223,1,11,target,target_4,G,/+/The convicted criminal * watched at the railway station * was * following the boy./,Did someone watch the criminal?,Y,,0,17,at,28,2,5,12,2,2,5,512,1563013588039,Y,2452,1
223,1,11,target,target_4,G,/+/The convicted criminal * watched at the railway station * was * following the boy./,Did someone watch the criminal?,Y,,0,17,the,29,2,6,12,2,3,5,416,1563013588455,Y,2452,1
223,1,11,target,target_4,G,/+/The convicted criminal * watched at the railway station * was * following the boy./,Did someone watch the criminal?,Y,,0,17,railway,30,2,7,12,2,4,5,560,1563013589015,Y,2452,1
223,1,11,target,target_4,G,/+/The convicted criminal * watched at the railway station * was * following the boy./,Did someone watch the criminal?,Y,,0,17,station,31,2,8,12,2,5,5,632,1563013589647,Y,2452,1
223,1,11,target,target_4,G,/+/The convicted criminal * watched at the railway station * was * following the boy./,Did someone watch the criminal?,Y,,0,17,was,32,2,9,12,3,1,1,663,1563013590310,Y,2452,1
223,1,11,target,target_4,G,/+/The convicted criminal * watched at the railway station * was * following the boy./,Did someone watch the criminal?,Y,,0,17,following,33,2,10,12,4,1,3,696,1563013591007,Y,2452,1
223,1,11,target,target_4,G,/+/The convicted criminal * watched at the railway station * was * following the boy./,Did someone watch the criminal?,Y,,0,17,the,34,2,11,12,4,2,3,472,1563013591479,Y,2452,1
223,1,11,target,target_4,G,/+/The convicted criminal * watched at the railway station * was * following the boy./,Did someone watch the criminal?,Y,,0,17,boy.,35,2,12,12,4,3,3,408,1563013591887,Y,2452,1
223,1,12,filler,filler_35,,/+/The company building was completed successfully in the third quarter./,Was the company building completed?,Y,,0,18,+,1,1,1,1,1,1,1,1223,1563013596063,N,2810,0
223,1,12,filler,filler_35,,/+/The company building was completed successfully in the third quarter./,Was the company building completed?,Y,,0,18,The,2,2,1,10,1,1,10,440,1563013596503,N,2810,0
223,1,12,filler,filler_35,,/+/The company building was completed successfully in the third quarter./,Was the company building completed?,Y,,0,18,company,3,2,2,10,1,2,10,903,1563013597406,N,2810,0
223,1,12,filler,filler_35,,/+/The company building was completed successfully in the third quarter./,Was the company building completed?,Y,,0,18,building,4,2,3,10,1,3,10,545,1563013597951,N,2810,0
223,1,12,filler,filler_35,,/+/The company building was completed successfully in the third quarter./,Was the company building completed?,Y,,0,18,was,5,2,4,10,1,4,10,544,1563013598495,N,2810,0
223,1,12,filler,filler_35,,/+/The company building was completed successfully in the third quarter./,Was the company building completed?,Y,,0,18,completed,6,2,5,10,1,5,10,775,1563013599270,N,2810,0
223,1,12,filler,filler_35,,/+/The company building was completed successfully in the third quarter./,Was the company building completed?,Y,,0,18,successfully,7,2,6,10,1,6,10,673,1563013599943,N,2810,0
223,1,12,filler,filler_35,,/+/The company building was completed successfully in the third quarter./,Was the company building completed?,Y,,0,18,in,8,2,7,10,1,7,10,503,1563013600446,N,2810,0
223,1,12,filler,filler_35,,/+/The company building was completed successfully in the third quarter./,Was the company building completed?,Y,,0,18,the,9,2,8,10,1,8,10,408,1563013600854,N,2810,0
223,1,12,filler,filler_35,,/+/The company building was completed successfully in the third quarter./,Was the company building completed?,Y,,0,18,third,10,2,9,10,1,9,10,495,1563013601350,N,2810,0
223,1,12,filler,filler_35,,/+/The company building was completed successfully in the third quarter./,Was the company building completed?,Y,,0,18,quarter.,11,2,10,10,1,10,10,1232,1563013602582,N,2810,0
223,1,13,target,target_8,C,/+/The older kids * who were * showed all the dances * felt * amazed at the party./,Did the older kids show the dances?,N,,0,19,+,1,1,1,1,1,1,1,494,1563013606390,Y,2235,0
223,1,13,target,target_8,C,/+/The older kids * who were * showed all the dances * felt * amazed at the party./,Did the older kids show the dances?,N,,0,19,The,2,2,1,14,1,1,3,408,1563013606798,Y,2235,0
223,1,13,target,target_8,C,/+/The older kids * who were * showed all the dances * felt * amazed at the party./,Did the older kids show the dances?,N,,0,19,older,3,2,2,14,1,2,3,400,1563013607199,Y,2235,0
223,1,13,target,target_8,C,/+/The older kids * who were * showed all the dances * felt * amazed at the party./,Did the older kids show the dances?,N,,0,19,kids,4,2,3,14,1,3,3,439,1563013607638,Y,2235,0
223,1,13,target,target_8,C,/+/The older kids * who were * showed all the dances * felt * amazed at the party./,Did the older kids show the dances?,N,,0,19,who,5,2,4,14,2,1,2,871,1563013608510,Y,2235,0
223,1,13,target,target_8,C,/+/The older kids * who were * showed all the dances * felt * amazed at the party./,Did the older kids show the dances?,N,,0,19,were,6,2,5,14,2,2,2,528,1563013609038,Y,2235,0
223,1,13,target,target_8,C,/+/The older kids * who were * showed all the dances * felt * amazed at the party./,Did the older kids show the dances?,N,,0,19,showed,7,2,6,14,3,1,4,543,1563013609582,Y,2235,0
223,1,13,target,target_8,C,/+/The older kids * who were * showed all the dances * felt * amazed at the party./,Did the older kids show the dances?,N,,0,19,all,8,2,7,14,3,2,4,577,1563013610159,Y,2235,0
223,1,13,target,target_8,C,/+/The older kids * who were * showed all the dances * felt * amazed at the party./,Did the older kids show the dances?,N,,0,19,the,9,2,8,14,3,3,4,447,1563013610606,Y,2235,0
223,1,13,target,target_8,C,/+/The older kids * who were * showed all the dances * felt * amazed at the party./,Did the older kids show the dances?,N,,0,19,dances,10,2,9,14,3,4,4,1088,1563013611694,Y,2235,0
223,1,13,target,target_8,C,/+/The older kids * who were * showed all the dances * felt * amazed at the party./,Did the older kids show the dances?,N,,0,19,felt,11,2,10,14,4,1,1,591,1563013612286,Y,2235,0
223,1,13,target,target_8,C,/+/The older kids * who were * showed all the dances * felt * amazed at the party./,Did the older kids show the dances?,N,,0,19,amazed,12,2,11,14,5,1,4,735,1563013613022,Y,2235,0
223,1,13,target,target_8,C,/+/The older kids * who were * showed all the dances * felt * amazed at the party./,Did the older kids show the dances?,N,,0,19,at,13,2,12,14,5,2,4,584,1563013613606,Y,2235,0
223,1,13,target,target_8,C,/+/The older kids * who were * showed all the dances * felt * amazed at the party./,Did the older kids show the dances?,N,,0,19,the,14,2,13,14,5,3,4,512,1563013614118,Y,2235,0
223,1,13,target,target_8,C,/+/The older kids * who were * showed all the dances * felt * amazed at the party./,Did the older kids show the dances?,N,,0,19,party.,15,2,14,14,5,4,4,751,1563013614870,Y,2235,0
223,1,14,filler,filler_27,,/+/The letter that came this morning was from a friendly classmate./,Did the letter arrive this morning?,Y,,0,20,+,1,1,1,1,1,1,1,424,1563013618030,Y,3603,1
223,1,14,filler,filler_27,,/+/The letter that came this morning was from a friendly classmate./,Did the letter arrive this morning?,Y,,0,20,The,2,2,1,11,1,1,11,472,1563013618502,Y,3603,1
223,1,14,filler,filler_27,,/+/The letter that came this morning was from a friendly classmate./,Did the letter arrive this morning?,Y,,0,20,letter,3,2,2,11,1,2,11,1864,1563013620366,Y,3603,1
223,1,14,filler,filler_27,,/+/The letter that came this morning was from a friendly classmate./,Did the letter arrive this morning?,Y,,0,20,that,4,2,3,11,1,3,11,504,1563013620870,Y,3603,1
223,1,14,filler,filler_27,,/+/The letter that came this morning was from a friendly classmate./,Did the letter arrive this morning?,Y,,0,20,came,5,2,4,11,1,4,11,703,1563013621574,Y,3603,1
223,1,14,filler,filler_27,,/+/The letter that came this morning was from a friendly classmate./,Did the letter arrive this morning?,Y,,0,20,this,6,2,5,11,1,5,11,496,1563013622070,Y,3603,1
223,1,14,filler,filler_27,,/+/The letter that came this morning was from a friendly classmate./,Did the letter arrive this morning?,Y,,0,20,morning,7,2,6,11,1,6,11,616,1563013622686,Y,3603,1
223,1,14,filler,filler_27,,/+/The letter that came this morning was from a friendly classmate./,Did the letter arrive this morning?,Y,,0,20,was,8,2,7,11,1,7,11,2392,1563013625078,Y,3603,1
223,1,14,filler,filler_27,,/+/The letter that came this morning was from a friendly classmate./,Did the letter arrive this morning?,Y,,0,20,from,9,2,8,11,1,8,11,648,1563013625726,Y,3603,1
223,1,14,filler,filler_27,,/+/The letter that came this morning was from a friendly classmate./,Did the letter arrive this morning?,Y,,0,20,a,10,2,9,11,1,9,11,400,1563013626126,Y,3603,1
223,1,14,filler,filler_27,,/+/The letter that came this morning was from a friendly classmate./,Did the letter arrive this morning?,Y,,0,20,friendly,11,2,10,11,1,10,11,567,1563013626693,Y,3603,1
223,1,14,filler,filler_27,,/+/The letter that came this morning was from a friendly classmate./,Did the letter arrive this morning?,Y,,0,20,classmate.,12,2,11,11,1,11,11,913,1563013627606,Y,3603,1
223,1,15,filler,filler_15,,/+/The book contained many useful information which could benefit the health./,Could the book be helpful for health?,Y,,0,21,+,1,1,1,1,1,1,1,448,1563013632159,Y,2682,1
223,1,15,filler,filler_15,,/+/The book contained many useful information which could benefit the health./,Could the book be helpful for health?,Y,,0,21,The,2,2,1,11,1,1,11,408,1563013632567,Y,2682,1
223,1,15,filler,filler_15,,/+/The book contained many useful information which could benefit the health./,Could the book be helpful for health?,Y,,0,21,book,3,2,2,11,1,2,11,503,1563013633070,Y,2682,1
223,1,15,filler,filler_15,,/+/The book contained many useful information which could benefit the health./,Could the book be helpful for health?,Y,,0,21,contained,4,2,3,11,1,3,11,920,1563013633991,Y,2682,1
223,1,15,filler,filler_15,,/+/The book contained many useful information which could benefit the health./,Could the book be helpful for health?,Y,,0,21,many,5,2,4,11,1,4,11,544,1563013634535,Y,2682,1
223,1,15,filler,filler_15,,/+/The book contained many useful information which could benefit the health./,Could the book be helpful for health?,Y,,0,21,useful,6,2,5,11,1,5,11,655,1563013635190,Y,2682,1
223,1,15,filler,filler_15,,/+/The book contained many useful information which could benefit the health./,Could the book be helpful for health?,Y,,0,21,information,7,2,6,11,1,6,11,647,1563013635838,Y,2682,1
223,1,15,filler,filler_15,,/+/The book contained many useful information which could benefit the health./,Could the book be helpful for health?,Y,,0,21,which,8,2,7,11,1,7,11,544,1563013636382,Y,2682,1
223,1,15,filler,filler_15,,/+/The book contained many useful information which could benefit the health./,Could the book be helpful for health?,Y,,0,21,could,9,2,8,11,1,8,11,543,1563013636926,Y,2682,1
223,1,15,filler,filler_15,,/+/The book contained many useful information which could benefit the health./,Could the book be helpful for health?,Y,,0,21,benefit,10,2,9,11,1,9,11,736,1563013637662,Y,2682,1
223,1,15,filler,filler_15,,/+/The book contained many useful information which could benefit the health./,Could the book be helpful for health?,Y,,0,21,the,11,2,10,11,1,10,11,472,1563013638135,Y,2682,1
223,1,15,filler,filler_15,,/+/The book contained many useful information which could benefit the health./,Could the book be helpful for health?,Y,,0,21,health.,12,2,11,11,1,11,11,647,1563013638782,Y,2682,1
223,1,16,target,target_6,G,/+/The six volunteers * taught the complicated procedure * became * very good students./,Did the volunteers teach the procedure?,N,,0,22,+,1,1,1,1,1,1,1,617,1563013642583,N,6091,1
223,1,16,target,target_6,G,/+/The six volunteers * taught the complicated procedure * became * very good students./,Did the volunteers teach the procedure?,N,,0,22,The,2,2,1,11,1,1,3,359,1563013642942,N,6091,1
223,1,16,target,target_6,G,/+/The six volunteers * taught the complicated procedure * became * very good students./,Did the volunteers teach the procedure?,N,,0,22,six,3,2,2,11,1,2,3,352,1563013643294,N,6091,1
223,1,16,target,target_6,G,/+/The six volunteers * taught the complicated procedure * became * very good students./,Did the volunteers teach the procedure?,N,,0,22,volunteers,4,2,3,11,1,3,3,679,1563013643974,N,6091,1
223,1,16,target,target_6,G,/+/The six volunteers * taught the complicated procedure * became * very good students./,Did the volunteers teach the procedure?,N,,0,22,taught,5,2,4,11,2,1,4,488,1563013644462,N,6091,1
223,1,16,target,target_6,G,/+/The six volunteers * taught the complicated procedure * became * very good students./,Did the volunteers teach the procedure?,N,,0,22,the,6,2,5,11,2,2,4,455,1563013644918,N,6091,1
223,1,16,target,target_6,G,/+/The six volunteers * taught the complicated procedure * became * very good students./,Did the volunteers teach the procedure?,N,,0,22,complicated,7,2,6,11,2,3,4,976,1563013645894,N,6091,1
223,1,16,target,target_6,G,/+/The six volunteers * taught the complicated procedure * became * very good students./,Did the volunteers teach the procedure?,N,,0,22,procedure,8,2,7,11,2,4,4,1175,1563013647070,N,6091,1
223,1,16,target,target_6,G,/+/The six volunteers * taught the complicated procedure * became * very good students./,Did the volunteers teach the procedure?,N,,0,22,became,9,2,8,11,3,1,1,600,1563013647670,N,6091,1
223,1,16,target,target_6,G,/+/The six volunteers * taught the complicated procedure * became * very good students./,Did the volunteers teach the procedure?,N,,0,22,very,10,2,9,11,4,1,3,591,1563013648262,N,6091,1
223,1,16,target,target_6,G,/+/The six volunteers * taught the complicated procedure * became * very good students./,Did the volunteers teach the procedure?,N,,0,22,good,11,2,10,11,4,2,3,511,1563013648774,N,6091,1
223,1,16,target,target_6,G,/+/The six volunteers * taught the complicated procedure * became * very good students./,Did the volunteers teach the procedure?,N,,0,22,students.,12,2,11,11,4,3,3,599,1563013649374,N,6091,1
223,1,17,filler,filler_5,,/+/The author said that the new book was based on a real story./,Was the book entirely imaginary? ,N,,0,23,+,1,1,1,1,1,1,1,574,1563013656542,N,3051,1
223,1,17,filler,filler_5,,/+/The author said that the new book was based on a real story./,Was the book entirely imaginary? ,N,,0,23,The,2,2,1,13,1,1,13,487,1563013657030,N,3051,1
223,1,17,filler,filler_5,,/+/The author said that the new book was based on a real story./,Was the book entirely imaginary? ,N,,0,23,author,3,2,2,13,1,2,13,648,1563013657678,N,3051,1
223,1,17,filler,filler_5,,/+/The author said that the new book was based on a real story./,Was the book entirely imaginary? ,N,,0,23,said,4,2,3,13,1,3,13,551,1563013658230,N,3051,1
223,1,17,filler,filler_5,,/+/The author said that the new book was based on a real story./,Was the book entirely imaginary? ,N,,0,23,that,5,2,4,13,1,4,13,640,1563013658870,N,3051,1
223,1,17,filler,filler_5,,/+/The author said that the new book was based on a real story./,Was the book entirely imaginary? ,N,,0,23,the,6,2,5,13,1,5,13,552,1563013659422,N,3051,1
223,1,17,filler,filler_5,,/+/The author said that the new book was based on a real story./,Was the book entirely imaginary? ,N,,0,23,new,7,2,6,13,1,6,13,544,1563013659966,N,3051,1
223,1,17,filler,filler_5,,/+/The author said that the new book was based on a real story./,Was the book entirely imaginary? ,N,,0,23,book,8,2,7,13,1,7,13,567,1563013660534,N,3051,1
223,1,17,filler,filler_5,,/+/The author said that the new book was based on a real story./,Was the book entirely imaginary? ,N,,0,23,was,9,2,8,13,1,8,13,440,1563013660974,N,3051,1
223,1,17,filler,filler_5,,/+/The author said that the new book was based on a real story./,Was the book entirely imaginary? ,N,,0,23,based,10,2,9,13,1,9,13,398,1563013661373,N,3051,1
223,1,17,filler,filler_5,,/+/The author said that the new book was based on a real story./,Was the book entirely imaginary? ,N,,0,23,on,11,2,10,13,1,10,13,608,1563013661982,N,3051,1
223,1,17,filler,filler_5,,/+/The author said that the new book was based on a real story./,Was the book entirely imaginary? ,N,,0,23,a,12,2,11,13,1,11,13,952,1563013662934,N,3051,1
223,1,17,filler,filler_5,,/+/The author said that the new book was based on a real story./,Was the book entirely imaginary? ,N,,0,23,real,13,2,12,13,1,12,13,656,1563013663590,N,3051,1
223,1,17,filler,filler_5,,/+/The author said that the new book was based on a real story./,Was the book entirely imaginary? ,N,,0,23,story.,14,2,13,13,1,13,13,520,1563013664110,N,3051,1
223,1,18,filler,filler_38,,/+/The gatekeeper refused to hand over the door key to the man./,Did the gatekeeper refuse to hand over the key?,Y,,0,24,+,1,1,1,1,1,1,1,447,1563013668110,Y,2659,1
223,1,18,filler,filler_38,,/+/The gatekeeper refused to hand over the door key to the man./,Did the gatekeeper refuse to hand over the key?,Y,,0,24,The,2,2,1,12,1,1,12,424,1563013668534,Y,2659,1
223,1,18,filler,filler_38,,/+/The gatekeeper refused to hand over the door key to the man./,Did the gatekeeper refuse to hand over the key?,Y,,0,24,gatekeeper,3,2,2,12,1,2,12,472,1563013669006,Y,2659,1
223,1,18,filler,filler_38,,/+/The gatekeeper refused to hand over the door key to the man./,Did the gatekeeper refuse to hand over the key?,Y,,0,24,refused,4,2,3,12,1,3,12,1072,1563013670078,Y,2659,1
223,1,18,filler,filler_38,,/+/The gatekeeper refused to hand over the door key to the man./,Did the gatekeeper refuse to hand over the key?,Y,,0,24,gatekeeper,5,2,2,12,1,2,12,888,1563013670966,Y,2659,1
223,1,18,filler,filler_38,,/+/The gatekeeper refused to hand over the door key to the man./,Did the gatekeeper refuse to hand over the key?,Y,,0,24,refused,6,2,3,12,1,3,12,936,1563013671902,Y,2659,1
223,1,18,filler,filler_38,,/+/The gatekeeper refused to hand over the door key to the man./,Did the gatekeeper refuse to hand over the key?,Y,,0,24,to,7,2,4,12,1,4,12,479,1563013672381,Y,2659,1
223,1,18,filler,filler_38,,/+/The gatekeeper refused to hand over the door key to the man./,Did the gatekeeper refuse to hand over the key?,Y,,0,24,hand,8,2,5,12,1,5,12,513,1563013672894,Y,2659,1
223,1,18,filler,filler_38,,/+/The gatekeeper refused to hand over the door key to the man./,Did the gatekeeper refuse to hand over the key?,Y,,0,24,over,9,2,6,12,1,6,12,535,1563013673429,Y,2659,1
223,1,18,filler,filler_38,,/+/The gatekeeper refused to hand over the door key to the man./,Did the gatekeeper refuse to hand over the key?,Y,,0,24,the,10,2,7,12,1,7,12,641,1563013674070,Y,2659,1
223,1,18,filler,filler_38,,/+/The gatekeeper refused to hand over the door key to the man./,Did the gatekeeper refuse to hand over the key?,Y,,0,24,door,11,2,8,12,1,8,12,567,1563013674637,Y,2659,1
223,1,18,filler,filler_38,,/+/The gatekeeper refused to hand over the door key to the man./,Did the gatekeeper refuse to hand over the key?,Y,,0,24,key,12,2,9,12,1,9,12,489,1563013675126,Y,2659,1
223,1,18,filler,filler_38,,/+/The gatekeeper refused to hand over the door key to the man./,Did the gatekeeper refuse to hand over the key?,Y,,0,24,to,13,2,10,12,1,10,12,528,1563013675654,Y,2659,1
223,1,18,filler,filler_38,,/+/The gatekeeper refused to hand over the door key to the man./,Did the gatekeeper refuse to hand over the key?,Y,,0,24,the,14,2,11,12,1,11,12,488,1563013676142,Y,2659,1
223,1,18,filler,filler_38,,/+/The gatekeeper refused to hand over the door key to the man./,Did the gatekeeper refuse to hand over the key?,Y,,0,24,man.,15,2,12,12,1,12,12,560,1563013676702,Y,2659,1
223,1,19,filler,filler_37,,/+/The tiger was caught after it ate two persons within one week./,Was the tiger caught?,Y,,0,25,+,1,1,1,1,1,1,1,566,1563013680438,Y,3756,1
223,1,19,filler,filler_37,,/+/The tiger was caught after it ate two persons within one week./,Was the tiger caught?,Y,,0,25,The,2,2,1,12,1,1,12,424,1563013680862,Y,3756,1
223,1,19,filler,filler_37,,/+/The tiger was caught after it ate two persons within one week./,Was the tiger caught?,Y,,0,25,tiger,3,2,2,12,1,2,12,416,1563013681278,Y,3756,1
223,1,19,filler,filler_37,,/+/The tiger was caught after it ate two persons within one week./,Was the tiger caught?,Y,,0,25,was,4,2,3,12,1,3,12,576,1563013681854,Y,3756,1
223,1,19,filler,filler_37,,/+/The tiger was caught after it ate two persons within one week./,Was the tiger caught?,Y,,0,25,caught,5,2,4,12,1,4,12,3368,1563013685222,Y,3756,1
223,1,19,filler,filler_37,,/+/The tiger was caught after it ate two persons within one week./,Was the tiger caught?,Y,,0,25,after,6,2,5,12,1,5,12,616,1563013685838,Y,3756,1
223,1,19,filler,filler_37,,/+/The tiger was caught after it ate two persons within one week./,Was the tiger caught?,Y,,0,25,it,7,2,6,12,1,6,12,472,1563013686310,Y,3756,1
223,1,19,filler,filler_37,,/+/The tiger was caught after it ate two persons within one week./,Was the tiger caught?,Y,,0,25,ate,8,2,7,12,1,7,12,440,1563013686750,Y,3756,1
223,1,19,filler,filler_37,,/+/The tiger was caught after it ate two persons within one week./,Was the tiger caught?,Y,,0,25,two,9,2,8,12,1,8,12,512,1563013687262,Y,3756,1
223,1,19,filler,filler_37,,/+/The tiger was caught after it ate two persons within one week./,Was the tiger caught?,Y,,0,25,persons,10,2,9,12,1,9,12,552,1563013687814,Y,3756,1
223,1,19,filler,filler_37,,/+/The tiger was caught after it ate two persons within one week./,Was the tiger caught?,Y,,0,25,within,11,2,10,12,1,10,12,537,1563013688351,Y,3756,1
223,1,19,filler,filler_37,,/+/The tiger was caught after it ate two persons within one week./,Was the tiger caught?,Y,,0,25,one,12,2,11,12,1,11,12,544,1563013688895,Y,3756,1
223,1,19,filler,filler_37,,/+/The tiger was caught after it ate two persons within one week./,Was the tiger caught?,Y,,0,25,week.,13,2,12,12,1,12,12,743,1563013689638,Y,3756,1
223,1,20,target,target_7,C,/+/The old man * who was * advised on the special diet * has * not responded./,Did the old man advise on the diet?,N,,0,26,+,1,1,1,1,1,1,1,447,1563013694343,N,2827,1
223,1,20,target,target_7,C,/+/The old man * who was * advised on the special diet * has * not responded./,Did the old man advise on the diet?,N,,0,26,The,2,2,1,13,1,1,3,407,1563013694750,N,2827,1
223,1,20,target,target_7,C,/+/The old man * who was * advised on the special diet * has * not responded./,Did the old man advise on the diet?,N,,0,26,old,3,2,2,13,1,2,3,401,1563013695151,N,2827,1
223,1,20,target,target_7,C,/+/The old man * who was * advised on the special diet * has * not responded./,Did the old man advise on the diet?,N,,0,26,man,4,2,3,13,1,3,3,384,1563013695535,N,2827,1
223,1,20,target,target_7,C,/+/The old man * who was * advised on the special diet * has * not responded./,Did the old man advise on the diet?,N,,0,26,who,5,2,4,13,2,1,2,384,1563013695919,N,2827,1
223,1,20,target,target_7,C,/+/The old man * who was * advised on the special diet * has * not responded./,Did the old man advise on the diet?,N,,0,26,was,6,2,5,13,2,2,2,544,1563013696463,N,2827,1
223,1,20,target,target_7,C,/+/The old man * who was * advised on the special diet * has * not responded./,Did the old man advise on the diet?,N,,0,26,advised,7,2,6,13,3,1,5,728,1563013697191,N,2827,1
223,1,20,target,target_7,C,/+/The old man * who was * advised on the special diet * has * not responded./,Did the old man advise on the diet?,N,,0,26,on,8,2,7,13,3,2,5,463,1563013697654,N,2827,1
223,1,20,target,target_7,C,/+/The old man * who was * advised on the special diet * has * not responded./,Did the old man advise on the diet?,N,,0,26,the,9,2,8,13,3,3,5,376,1563013698031,N,2827,1
223,1,20,target,target_7,C,/+/The old man * who was * advised on the special diet * has * not responded./,Did the old man advise on the diet?,N,,0,26,special,10,2,9,13,3,4,5,552,1563013698583,N,2827,1
223,1,20,target,target_7,C,/+/The old man * who was * advised on the special diet * has * not responded./,Did the old man advise on the diet?,N,,0,26,diet,11,2,10,13,3,5,5,2000,1563013700583,N,2827,1
223,1,20,target,target_7,C,/+/The old man * who was * advised on the special diet * has * not responded./,Did the old man advise on the diet?,N,,0,26,has,12,2,11,13,4,1,1,576,1563013701159,N,2827,1
223,1,20,target,target_7,C,/+/The old man * who was * advised on the special diet * has * not responded./,Did the old man advise on the diet?,N,,0,26,not,13,2,12,13,5,1,2,1040,1563013702199,N,2827,1
223,1,20,target,target_7,C,/+/The old man * who was * advised on the special diet * has * not responded./,Did the old man advise on the diet?,N,,0,26,responded.,14,2,13,13,5,2,2,1496,1563013703695,N,2827,1
223,1,21,filler,filler_18,,/+/The actual price of the clothes was much higher than the man had expected./,Was the price of the clothes low?,N,,0,27,+,1,1,1,1,1,1,1,599,1563013707623,N,2139,1
223,1,21,filler,filler_18,,/+/The actual price of the clothes was much higher than the man had expected./,Was the price of the clothes low?,N,,0,27,The,2,2,1,14,1,1,14,408,1563013708031,N,2139,1
223,1,21,filler,filler_18,,/+/The actual price of the clothes was much higher than the man had expected./,Was the price of the clothes low?,N,,0,27,actual,3,2,2,14,1,2,14,520,1563013708551,N,2139,1
223,1,21,filler,filler_18,,/+/The actual price of the clothes was much higher than the man had expected./,Was the price of the clothes low?,N,,0,27,price,4,2,3,14,1,3,14,1872,1563013710423,N,2139,1
223,1,21,filler,filler_18,,/+/The actual price of the clothes was much higher than the man had expected./,Was the price of the clothes low?,N,,0,27,actual,5,2,2,14,1,2,14,784,1563013711207,N,2139,1
223,1,21,filler,filler_18,,/+/The actual price of the clothes was much higher than the man had expected./,Was the price of the clothes low?,N,,0,27,The,6,2,1,14,1,1,14,919,1563013712126,N,2139,1
223,1,21,filler,filler_18,,/+/The actual price of the clothes was much higher than the man had expected./,Was the price of the clothes low?,N,,0,27,actual,7,2,2,14,1,2,14,679,1563013712806,N,2139,1
223,1,21,filler,filler_18,,/+/The actual price of the clothes was much higher than the man had expected./,Was the price of the clothes low?,N,,0,27,price,8,2,3,14,1,3,14,432,1563013713239,N,2139,1
223,1,21,filler,filler_18,,/+/The actual price of the clothes was much higher than the man had expected./,Was the price of the clothes low?,N,,0,27,of,9,2,4,14,1,4,14,543,1563013713782,N,2139,1
223,1,21,filler,filler_18,,/+/The actual price of the clothes was much higher than the man had expected./,Was the price of the clothes low?,N,,0,27,the,10,2,5,14,1,5,14,568,1563013714351,N,2139,1
223,1,21,filler,filler_18,,/+/The actual price of the clothes was much higher than the man had expected./,Was the price of the clothes low?,N,,0,27,clothes,11,2,6,14,1,6,14,655,1563013715006,N,2139,1
223,1,21,filler,filler_18,,/+/The actual price of the clothes was much higher than the man had expected./,Was the price of the clothes low?,N,,0,27,was,12,2,7,14,1,7,14,504,1563013715510,N,2139,1
223,1,21,filler,filler_18,,/+/The actual price of the clothes was much higher than the man had expected./,Was the price of the clothes low?,N,,0,27,much,13,2,8,14,1,8,14,479,1563013715990,N,2139,1
223,1,21,filler,filler_18,,/+/The actual price of the clothes was much higher than the man had expected./,Was the price of the clothes low?,N,,0,27,higher,14,2,9,14,1,9,14,720,1563013716710,N,2139,1
223,1,21,filler,filler_18,,/+/The actual price of the clothes was much higher than the man had expected./,Was the price of the clothes low?,N,,0,27,than,15,2,10,14,1,10,14,463,1563013717174,N,2139,1
223,1,21,filler,filler_18,,/+/The actual price of the clothes was much higher than the man had expected./,Was the price of the clothes low?,N,,0,27,the,16,2,11,14,1,11,14,439,1563013717614,N,2139,1
223,1,21,filler,filler_18,,/+/The actual price of the clothes was much higher than the man had expected./,Was the price of the clothes low?,N,,0,27,man,17,2,12,14,1,12,14,487,1563013718102,N,2139,1
223,1,21,filler,filler_18,,/+/The actual price of the clothes was much higher than the man had expected./,Was the price of the clothes low?,N,,0,27,had,18,2,13,14,1,13,14,448,1563013718550,N,2139,1
223,1,21,filler,filler_18,,/+/The actual price of the clothes was much higher than the man had expected./,Was the price of the clothes low?,N,,0,27,expected.,19,2,14,14,1,14,14,847,1563013719398,N,2139,1
223,1,22,target,target_9,G,/+/The famous scientist * awarded an academic prize * expressed * his excitement./,Did the scientist award a prize？,N,,0,28,+,1,1,1,1,1,1,1,519,1563013722558,N,4891,1
223,1,22,target,target_9,G,/+/The famous scientist * awarded an academic prize * expressed * his excitement./,Did the scientist award a prize？,N,,0,28,The,2,2,1,10,1,1,3,367,1563013722926,N,4891,1
223,1,22,target,target_9,G,/+/The famous scientist * awarded an academic prize * expressed * his excitement./,Did the scientist award a prize？,N,,0,28,famous,3,2,2,10,1,2,3,575,1563013723502,N,4891,1
223,1,22,target,target_9,G,/+/The famous scientist * awarded an academic prize * expressed * his excitement./,Did the scientist award a prize？,N,,0,28,scientist,4,2,3,10,1,3,3,367,1563013723870,N,4891,1
223,1,22,target,target_9,G,/+/The famous scientist * awarded an academic prize * expressed * his excitement./,Did the scientist award a prize？,N,,0,28,awarded,5,2,4,10,2,1,4,1095,1563013724966,N,4891,1
223,1,22,target,target_9,G,/+/The famous scientist * awarded an academic prize * expressed * his excitement./,Did the scientist award a prize？,N,,0,28,an,6,2,5,10,2,2,4,719,1563013725686,N,4891,1
223,1,22,target,target_9,G,/+/The famous scientist * awarded an academic prize * expressed * his excitement./,Did the scientist award a prize？,N,,0,28,academic,7,2,6,10,2,3,4,1528,1563013727214,N,4891,1
223,1,22,target,target_9,G,/+/The famous scientist * awarded an academic prize * expressed * his excitement./,Did the scientist award a prize？,N,,0,28,prize,8,2,7,10,2,4,4,592,1563013727806,N,4891,1
223,1,22,target,target_9,G,/+/The famous scientist * awarded an academic prize * expressed * his excitement./,Did the scientist award a prize？,N,,0,28,expressed,9,2,8,10,3,1,1,3143,1563013730950,N,4891,1
223,1,22,target,target_9,G,/+/The famous scientist * awarded an academic prize * expressed * his excitement./,Did the scientist award a prize？,N,,0,28,his,10,2,9,10,4,1,2,495,1563013731446,N,4891,1
223,1,22,target,target_9,G,/+/The famous scientist * awarded an academic prize * expressed * his excitement./,Did the scientist award a prize？,N,,0,28,excitement.,11,2,10,10,4,2,2,951,1563013732398,N,4891,1
223,1,23,filler,filler_2,,/+/The small town near Taipei was famous for its rich seafood resources./,Was the small town famous?,Y,,0,29,+,1,1,1,1,1,1,1,2239,1563013740030,Y,2978,1
223,1,23,filler,filler_2,,/+/The small town near Taipei was famous for its rich seafood resources./,Was the small town famous?,Y,,0,29,The,2,2,1,12,1,1,12,1479,1563013741510,Y,2978,1
223,1,23,filler,filler_2,,/+/The small town near Taipei was famous for its rich seafood resources./,Was the small town famous?,Y,,0,29,small,3,2,2,12,1,2,12,744,1563013742254,Y,2978,1
223,1,23,filler,filler_2,,/+/The small town near Taipei was famous for its rich seafood resources./,Was the small town famous?,Y,,0,29,town,4,2,3,12,1,3,12,1464,1563013743718,Y,2978,1
223,1,23,filler,filler_2,,/+/The small town near Taipei was famous for its rich seafood resources./,Was the small town famous?,Y,,0,29,near,5,2,4,12,1,4,12,856,1563013744574,Y,2978,1
223,1,23,filler,filler_2,,/+/The small town near Taipei was famous for its rich seafood resources./,Was the small town famous?,Y,,0,29,Taipei,6,2,5,12,1,5,12,3304,1563013747878,Y,2978,1
223,1,23,filler,filler_2,,/+/The small town near Taipei was famous for its rich seafood resources./,Was the small town famous?,Y,,0,29,was,7,2,6,12,1,6,12,488,1563013748366,Y,2978,1
223,1,23,filler,filler_2,,/+/The small town near Taipei was famous for its rich seafood resources./,Was the small town famous?,Y,,0,29,famous,8,2,7,12,1,7,12,624,1563013748990,Y,2978,1
223,1,23,filler,filler_2,,/+/The small town near Taipei was famous for its rich seafood resources./,Was the small town famous?,Y,,0,29,for,9,2,8,12,1,8,12,447,1563013749437,Y,2978,1
223,1,23,filler,filler_2,,/+/The small town near Taipei was famous for its rich seafood resources./,Was the small town famous?,Y,,0,29,its,10,2,9,12,1,9,12,417,1563013749854,Y,2978,1
223,1,23,filler,filler_2,,/+/The small town near Taipei was famous for its rich seafood resources./,Was the small town famous?,Y,,0,29,rich,11,2,10,12,1,10,12,552,1563013750406,Y,2978,1
223,1,23,filler,filler_2,,/+/The small town near Taipei was famous for its rich seafood resources./,Was the small town famous?,Y,,0,29,seafood,12,2,11,12,1,11,12,968,1563013751374,Y,2978,1
223,1,23,filler,filler_2,,/+/The small town near Taipei was famous for its rich seafood resources./,Was the small town famous?,Y,,0,29,resources.,13,2,12,12,1,12,12,1784,1563013753158,Y,2978,1
223,1,24,filler,filler_30,,/+/The pop star contributed four million to the Hope project yesterday./,Did the pop star donate money yesterday?,Y,,0,30,+,1,1,1,1,1,1,1,424,1563013757062,N,5347,0
223,1,24,filler,filler_30,,/+/The pop star contributed four million to the Hope project yesterday./,Did the pop star donate money yesterday?,Y,,0,30,The,2,2,1,11,1,1,11,392,1563013757454,N,5347,0
223,1,24,filler,filler_30,,/+/The pop star contributed four million to the Hope project yesterday./,Did the pop star donate money yesterday?,Y,,0,30,pop,3,2,2,11,1,2,11,368,1563013757822,N,5347,0
223,1,24,filler,filler_30,,/+/The pop star contributed four million to the Hope project yesterday./,Did the pop star donate money yesterday?,Y,,0,30,star,4,2,3,11,1,3,11,512,1563013758334,N,5347,0
223,1,24,filler,filler_30,,/+/The pop star contributed four million to the Hope project yesterday./,Did the pop star donate money yesterday?,Y,,0,30,contributed,5,2,4,11,1,4,11,1543,1563013759877,N,5347,0
223,1,24,filler,filler_30,,/+/The pop star contributed four million to the Hope project yesterday./,Did the pop star donate money yesterday?,Y,,0,30,four,6,2,5,11,1,5,11,513,1563013760390,N,5347,0
223,1,24,filler,filler_30,,/+/The pop star contributed four million to the Hope project yesterday./,Did the pop star donate money yesterday?,Y,,0,30,million,7,2,6,11,1,6,11,824,1563013761214,N,5347,0
223,1,24,filler,filler_30,,/+/The pop star contributed four million to the Hope project yesterday./,Did the pop star donate money yesterday?,Y,,0,30,to,8,2,7,11,1,7,11,495,1563013761709,N,5347,0
223,1,24,filler,filler_30,,/+/The pop star contributed four million to the Hope project yesterday./,Did the pop star donate money yesterday?,Y,,0,30,the,9,2,8,11,1,8,11,585,1563013762294,N,5347,0
223,1,24,filler,filler_30,,/+/The pop star contributed four million to the Hope project yesterday./,Did the pop star donate money yesterday?,Y,,0,30,Hope,10,2,9,11,1,9,11,576,1563013762870,N,5347,0
223,1,24,filler,filler_30,,/+/The pop star contributed four million to the Hope project yesterday./,Did the pop star donate money yesterday?,Y,,0,30,project,11,2,10,11,1,10,11,879,1563013763749,N,5347,0
223,1,24,filler,filler_30,,/+/The pop star contributed four million to the Hope project yesterday./,Did the pop star donate money yesterday?,Y,,0,30,yesterday.,12,2,11,11,1,11,11,617,1563013764366,N,5347,0
223,1,25,target,target_10,C,/+/The skilled hunters * who were * stopped killing wild animals * ended up * in prison./,Did somebody stop the hunters from killing?,Y,,0,31,+,1,1,1,1,1,1,1,574,1563013770789,Y,5851,1
223,1,25,target,target_10,C,/+/The skilled hunters * who were * stopped killing wild animals * ended up * in prison./,Did somebody stop the hunters from killing?,Y,,0,31,The,2,2,1,13,1,1,3,353,1563013771142,Y,5851,1
223,1,25,target,target_10,C,/+/The skilled hunters * who were * stopped killing wild animals * ended up * in prison./,Did somebody stop the hunters from killing?,Y,,0,31,skilled,3,2,2,13,1,2,3,1687,1563013772829,Y,5851,1
223,1,25,target,target_10,C,/+/The skilled hunters * who were * stopped killing wild animals * ended up * in prison./,Did somebody stop the hunters from killing?,Y,,0,31,hunters,4,2,3,13,1,3,3,824,1563013773653,Y,5851,1
223,1,25,target,target_10,C,/+/The skilled hunters * who were * stopped killing wild animals * ended up * in prison./,Did somebody stop the hunters from killing?,Y,,0,31,who,5,2,4,13,2,1,2,425,1563013774078,Y,5851,1
223,1,25,target,target_10,C,/+/The skilled hunters * who were * stopped killing wild animals * ended up * in prison./,Did somebody stop the hunters from killing?,Y,,0,31,were,6,2,5,13,2,2,2,448,1563013774526,Y,5851,1
223,1,25,target,target_10,C,/+/The skilled hunters * who were * stopped killing wild animals * ended up * in prison./,Did somebody stop the hunters from killing?,Y,,0,31,stopped,7,2,6,13,3,1,4,512,1563013775038,Y,5851,1
223,1,25,target,target_10,C,/+/The skilled hunters * who were * stopped killing wild animals * ended up * in prison./,Did somebody stop the hunters from killing?,Y,,0,31,killing,8,2,7,13,3,2,4,432,1563013775470,Y,5851,1
223,1,25,target,target_10,C,/+/The skilled hunters * who were * stopped killing wild animals * ended up * in prison./,Did somebody stop the hunters from killing?,Y,,0,31,wild,9,2,8,13,3,3,4,463,1563013775933,Y,5851,1
223,1,25,target,target_10,C,/+/The skilled hunters * who were * stopped killing wild animals * ended up * in prison./,Did somebody stop the hunters from killing?,Y,,0,31,animals,10,2,9,13,3,4,4,584,1563013776517,Y,5851,1
223,1,25,target,target_10,C,/+/The skilled hunters * who were * stopped killing wild animals * ended up * in prison./,Did somebody stop the hunters from killing?,Y,,0,31,ended,11,2,10,13,4,1,2,937,1563013777454,Y,5851,1
223,1,25,target,target_10,C,/+/The skilled hunters * who were * stopped killing wild animals * ended up * in prison./,Did somebody stop the hunters from killing?,Y,,0,31,up,12,2,11,13,4,2,2,543,1563013777997,Y,5851,1
223,1,25,target,target_10,C,/+/The skilled hunters * who were * stopped killing wild animals * ended up * in prison./,Did somebody stop the hunters from killing?,Y,,0,31,in,13,2,12,13,5,1,2,497,1563013778494,Y,5851,1
223,1,25,target,target_10,C,/+/The skilled hunters * who were * stopped killing wild animals * ended up * in prison./,Did somebody stop the hunters from killing?,Y,,0,31,prison.,14,2,13,13,5,2,2,672,1563013779166,Y,5851,1
223,1,26,filler,filler_21,,/+/The employees were willing to work in a nice environment./,Did the employees want to work in a poor environment?,N,,0,32,+,1,1,1,1,1,1,1,430,1563013785949,N,2603,1
223,1,26,filler,filler_21,,/+/The employees were willing to work in a nice environment./,Did the employees want to work in a poor environment?,N,,0,32,The,2,2,1,10,1,1,10,513,1563013786462,N,2603,1
223,1,26,filler,filler_21,,/+/The employees were willing to work in a nice environment./,Did the employees want to work in a poor environment?,N,,0,32,employees,3,2,2,10,1,2,10,3136,1563013789598,N,2603,1
223,1,26,filler,filler_21,,/+/The employees were willing to work in a nice environment./,Did the employees want to work in a poor environment?,N,,0,32,were,4,2,3,10,1,3,10,1208,1563013790806,N,2603,1
223,1,26,filler,filler_21,,/+/The employees were willing to work in a nice environment./,Did the employees want to work in a poor environment?,N,,0,32,willing,5,2,4,10,1,4,10,752,1563013791558,N,2603,1
223,1,26,filler,filler_21,,/+/The employees were willing to work in a nice environment./,Did the employees want to work in a poor environment?,N,,0,32,to,6,2,5,10,1,5,10,511,1563013792069,N,2603,1
223,1,26,filler,filler_21,,/+/The employees were willing to work in a nice environment./,Did the employees want to work in a poor environment?,N,,0,32,work,7,2,6,10,1,6,10,401,1563013792470,N,2603,1
223,1,26,filler,filler_21,,/+/The employees were willing to work in a nice environment./,Did the employees want to work in a poor environment?,N,,0,32,in,8,2,7,10,1,7,10,623,1563013793093,N,2603,1
223,1,26,filler,filler_21,,/+/The employees were willing to work in a nice environment./,Did the employees want to work in a poor environment?,N,,0,32,a,9,2,8,10,1,8,10,360,1563013793453,N,2603,1
223,1,26,filler,filler_21,,/+/The employees were willing to work in a nice environment./,Did the employees want to work in a poor environment?,N,,0,32,nice,10,2,9,10,1,9,10,361,1563013793814,N,2603,1
223,1,26,filler,filler_21,,/+/The employees were willing to work in a nice environment./,Did the employees want to work in a poor environment?,N,,0,32,environment.,11,2,10,10,1,10,10,512,1563013794326,N,2603,1
223,1,27,filler,filler_20,,/+/The woman's pretty dress was burned by those naughty boys./,Was the dress burned by the boys?,Y,,0,33,+,1,1,1,1,1,1,1,559,1563013797990,Y,4660,1
223,1,27,filler,filler_20,,/+/The woman's pretty dress was burned by those naughty boys./,Was the dress burned by the boys?,Y,,0,33,The,2,2,1,10,1,1,10,400,1563013798390,Y,4660,1
223,1,27,filler,filler_20,,/+/The woman's pretty dress was burned by those naughty boys./,Was the dress burned by the boys?,Y,,0,33,woman's,3,2,2,10,1,2,10,416,1563013798806,Y,4660,1
223,1,27,filler,filler_20,,/+/The woman's pretty dress was burned by those naughty boys./,Was the dress burned by the boys?,Y,,0,33,pretty,4,2,3,10,1,3,10,439,1563013799245,Y,4660,1
223,1,27,filler,filler_20,,/+/The woman's pretty dress was burned by those naughty boys./,Was the dress burned by the boys?,Y,,0,33,dress,5,2,4,10,1,4,10,1513,1563013800758,Y,4660,1
223,1,27,filler,filler_20,,/+/The woman's pretty dress was burned by those naughty boys./,Was the dress burned by the boys?,Y,,0,33,was,6,2,5,10,1,5,10,535,1563013801293,Y,4660,1
223,1,27,filler,filler_20,,/+/The woman's pretty dress was burned by those naughty boys./,Was the dress burned by the boys?,Y,,0,33,burned,7,2,6,10,1,6,10,1145,1563013802438,Y,4660,1
223,1,27,filler,filler_20,,/+/The woman's pretty dress was burned by those naughty boys./,Was the dress burned by the boys?,Y,,0,33,by,8,2,7,10,1,7,10,640,1563013803078,Y,4660,1
223,1,27,filler,filler_20,,/+/The woman's pretty dress was burned by those naughty boys./,Was the dress burned by the boys?,Y,,0,33,those,9,2,8,10,1,8,10,896,1563013803974,Y,4660,1
223,1,27,filler,filler_20,,/+/The woman's pretty dress was burned by those naughty boys./,Was the dress burned by the boys?,Y,,0,33,naughty,10,2,9,10,1,9,10,1311,1563013805285,Y,4660,1
223,1,27,filler,filler_20,,/+/The woman's pretty dress was burned by those naughty boys./,Was the dress burned by the boys?,Y,,0,33,boys.,11,2,10,10,1,10,10,561,1563013805846,Y,4660,1
223,1,28,filler,filler_36,,/+/The biology expert argued that wild animals should be protected now./,Did the biology expert argue to pretect wild animals?,Y,,0,34,+,1,1,1,1,1,1,1,767,1563013811775,N,8900,0
223,1,28,filler,filler_36,,/+/The biology expert argued that wild animals should be protected now./,Did the biology expert argue to pretect wild animals?,Y,,0,34,The,2,2,1,11,1,1,11,432,1563013812207,N,8900,0
223,1,28,filler,filler_36,,/+/The biology expert argued that wild animals should be protected now./,Did the biology expert argue to pretect wild animals?,Y,,0,34,biology,3,2,2,11,1,2,11,1279,1563013813486,N,8900,0
223,1,28,filler,filler_36,,/+/The biology expert argued that wild animals should be protected now./,Did the biology expert argue to pretect wild animals?,Y,,0,34,expert,4,2,3,11,1,3,11,497,1563013813983,N,8900,0
223,1,28,filler,filler_36,,/+/The biology expert argued that wild animals should be protected now./,Did the biology expert argue to pretect wild animals?,Y,,0,34,argued,5,2,4,11,1,4,11,1024,1563013815007,N,8900,0
223,1,28,filler,filler_36,,/+/The biology expert argued that wild animals should be protected now./,Did the biology expert argue to pretect wild animals?,Y,,0,34,that,6,2,5,11,1,5,11,519,1563013815526,N,8900,0
223,1,28,filler,filler_36,,/+/The biology expert argued that wild animals should be protected now./,Did the biology expert argue to pretect wild animals?,Y,,0,34,wild,7,2,6,11,1,6,11,673,1563013816199,N,8900,0
223,1,28,filler,filler_36,,/+/The biology expert argued that wild animals should be protected now./,Did the biology expert argue to pretect wild animals?,Y,,0,34,animals,8,2,7,11,1,7,11,840,1563013817039,N,8900,0
223,1,28,filler,filler_36,,/+/The biology expert argued that wild animals should be protected now./,Did the biology expert argue to pretect wild animals?,Y,,0,34,should,9,2,8,11,1,8,11,768,1563013817807,N,8900,0
223,1,28,filler,filler_36,,/+/The biology expert argued that wild animals should be protected now./,Did the biology expert argue to pretect wild animals?,Y,,0,34,be,10,2,9,11,1,9,11,504,1563013818311,N,8900,0
223,1,28,filler,filler_36,,/+/The biology expert argued that wild animals should be protected now./,Did the biology expert argue to pretect wild animals?,Y,,0,34,protected,11,2,10,11,1,10,11,648,1563013818959,N,8900,0
223,1,28,filler,filler_36,,/+/The biology expert argued that wild animals should be protected now./,Did the biology expert argue to pretect wild animals?,Y,,0,34,now.,12,2,11,11,1,11,11,599,1563013819558,N,8900,0
223,1,29,target,target_18,C,/+/The young repairman * who was * paid for the bill * said * thanks to the hostress./,Did the repairman pay for the bill?,N,,0,35,+,1,1,1,1,1,1,1,518,1563013829478,Y,4971,0
223,1,29,target,target_18,C,/+/The young repairman * who was * paid for the bill * said * thanks to the hostress./,Did the repairman pay for the bill?,N,,0,35,The,2,2,1,14,1,1,3,359,1563013829838,Y,4971,0
223,1,29,target,target_18,C,/+/The young repairman * who was * paid for the bill * said * thanks to the hostress./,Did the repairman pay for the bill?,N,,0,35,young,3,2,2,14,1,2,3,431,1563013830270,Y,4971,0
223,1,29,target,target_18,C,/+/The young repairman * who was * paid for the bill * said * thanks to the hostress./,Did the repairman pay for the bill?,N,,0,35,repairman,4,2,3,14,1,3,3,1655,1563013831926,Y,4971,0
223,1,29,target,target_18,C,/+/The young repairman * who was * paid for the bill * said * thanks to the hostress./,Did the repairman pay for the bill?,N,,0,35,who,5,2,4,14,2,1,2,415,1563013832342,Y,4971,0
223,1,29,target,target_18,C,/+/The young repairman * who was * paid for the bill * said * thanks to the hostress./,Did the repairman pay for the bill?,N,,0,35,was,6,2,5,14,2,2,2,511,1563013832854,Y,4971,0
223,1,29,target,target_18,C,/+/The young repairman * who was * paid for the bill * said * thanks to the hostress./,Did the repairman pay for the bill?,N,,0,35,paid,7,2,6,14,3,1,4,359,1563013833214,Y,4971,0
223,1,29,target,target_18,C,/+/The young repairman * who was * paid for the bill * said * thanks to the hostress./,Did the repairman pay for the bill?,N,,0,35,for,8,2,7,14,3,2,4,423,1563013833638,Y,4971,0
223,1,29,target,target_18,C,/+/The young repairman * who was * paid for the bill * said * thanks to the hostress./,Did the repairman pay for the bill?,N,,0,35,the,9,2,8,14,3,3,4,368,1563013834006,Y,4971,0
223,1,29,target,target_18,C,/+/The young repairman * who was * paid for the bill * said * thanks to the hostress./,Did the repairman pay for the bill?,N,,0,35,bill,10,2,9,14,3,4,4,951,1563013834958,Y,4971,0
223,1,29,target,target_18,C,/+/The young repairman * who was * paid for the bill * said * thanks to the hostress./,Did the repairman pay for the bill?,N,,0,35,said,11,2,10,14,4,1,1,423,1563013835382,Y,4971,0
223,1,29,target,target_18,C,/+/The young repairman * who was * paid for the bill * said * thanks to the hostress./,Did the repairman pay for the bill?,N,,0,35,thanks,12,2,11,14,5,1,4,1199,1563013836582,Y,4971,0
223,1,29,target,target_18,C,/+/The young repairman * who was * paid for the bill * said * thanks to the hostress./,Did the repairman pay for the bill?,N,,0,35,to,13,2,12,14,5,2,4,423,1563013837006,Y,4971,0
223,1,29,target,target_18,C,/+/The young repairman * who was * paid for the bill * said * thanks to the hostress./,Did the repairman pay for the bill?,N,,0,35,the,14,2,13,14,5,3,4,375,1563013837382,Y,4971,0
223,1,29,target,target_18,C,/+/The young repairman * who was * paid for the bill * said * thanks to the hostress./,Did the repairman pay for the bill?,N,,0,35,hostress.,15,2,14,14,5,4,4,727,1563013838110,Y,4971,0
223,1,30,filler,filler_33,,/+/The old fireman did not believe that his wife was capable of making decisions./,Did the fireman believe his wife in making decisions?,N,,0,36,+,1,1,1,1,1,1,1,958,1563013844542,N,3666,1
223,1,30,filler,filler_33,,/+/The old fireman did not believe that his wife was capable of making decisions./,Did the fireman believe his wife in making decisions?,N,,0,36,The,2,2,1,14,1,1,14,608,1563013845150,N,3666,1
223,1,30,filler,filler_33,,/+/The old fireman did not believe that his wife was capable of making decisions./,Did the fireman believe his wife in making decisions?,N,,0,36,old,3,2,2,14,1,2,14,352,1563013845502,N,3666,1
223,1,30,filler,filler_33,,/+/The old fireman did not believe that his wife was capable of making decisions./,Did the fireman believe his wife in making decisions?,N,,0,36,fireman,4,2,3,14,1,3,14,376,1563013845878,N,3666,1
223,1,30,filler,filler_33,,/+/The old fireman did not believe that his wife was capable of making decisions./,Did the fireman believe his wife in making decisions?,N,,0,36,did,5,2,4,14,1,4,14,1280,1563013847158,N,3666,1
223,1,30,filler,filler_33,,/+/The old fireman did not believe that his wife was capable of making decisions./,Did the fireman believe his wife in making decisions?,N,,0,36,fireman,6,2,3,14,1,3,14,679,1563013847838,N,3666,1
223,1,30,filler,filler_33,,/+/The old fireman did not believe that his wife was capable of making decisions./,Did the fireman believe his wife in making decisions?,N,,0,36,did,7,2,4,14,1,4,14,400,1563013848238,N,3666,1
223,1,30,filler,filler_33,,/+/The old fireman did not believe that his wife was capable of making decisions./,Did the fireman believe his wife in making decisions?,N,,0,36,not,8,2,5,14,1,5,14,719,1563013848957,N,3666,1
223,1,30,filler,filler_33,,/+/The old fireman did not believe that his wife was capable of making decisions./,Did the fireman believe his wife in making decisions?,N,,0,36,believe,9,2,6,14,1,6,14,544,1563013849502,N,3666,1
223,1,30,filler,filler_33,,/+/The old fireman did not believe that his wife was capable of making decisions./,Did the fireman believe his wife in making decisions?,N,,0,36,that,10,2,7,14,1,7,14,432,1563013849934,N,3666,1
223,1,30,filler,filler_33,,/+/The old fireman did not believe that his wife was capable of making decisions./,Did the fireman believe his wife in making decisions?,N,,0,36,his,11,2,8,14,1,8,14,416,1563013850350,N,3666,1
223,1,30,filler,filler_33,,/+/The old fireman did not believe that his wife was capable of making decisions./,Did the fireman believe his wife in making decisions?,N,,0,36,wife,12,2,9,14,1,9,14,712,1563013851062,N,3666,1
223,1,30,filler,filler_33,,/+/The old fireman did not believe that his wife was capable of making decisions./,Did the fireman believe his wife in making decisions?,N,,0,36,was,13,2,10,14,1,10,14,464,1563013851526,N,3666,1
223,1,30,filler,filler_33,,/+/The old fireman did not believe that his wife was capable of making decisions./,Did the fireman believe his wife in making decisions?,N,,0,36,capable,14,2,11,14,1,11,14,784,1563013852310,N,3666,1
223,1,30,filler,filler_33,,/+/The old fireman did not believe that his wife was capable of making decisions./,Did the fireman believe his wife in making decisions?,N,,0,36,of,15,2,12,14,1,12,14,800,1563013853110,N,3666,1
223,1,30,filler,filler_33,,/+/The old fireman did not believe that his wife was capable of making decisions./,Did the fireman believe his wife in making decisions?,N,,0,36,making,16,2,13,14,1,13,14,592,1563013853702,N,3666,1
223,1,30,filler,filler_33,,/+/The old fireman did not believe that his wife was capable of making decisions./,Did the fireman believe his wife in making decisions?,N,,0,36,decisions.,17,2,14,14,1,14,14,1024,1563013854726,N,3666,1
223,1,31,target,target_12,G,/+/The new manager * promised a better office * worked * much harder./,Did someone promise the manager a office?,Y,,0,37,+,1,1,1,1,1,1,1,583,1563013859478,N,4403,0
223,1,31,target,target_12,G,/+/The new manager * promised a better office * worked * much harder./,Did someone promise the manager a office?,Y,,0,37,The,2,2,1,10,1,1,3,408,1563013859886,N,4403,0
223,1,31,target,target_12,G,/+/The new manager * promised a better office * worked * much harder./,Did someone promise the manager a office?,Y,,0,37,new,3,2,2,10,1,2,3,464,1563013860350,N,4403,0
223,1,31,target,target_12,G,/+/The new manager * promised a better office * worked * much harder./,Did someone promise the manager a office?,Y,,0,37,manager,4,2,3,10,1,3,3,600,1563013860950,N,4403,0
223,1,31,target,target_12,G,/+/The new manager * promised a better office * worked * much harder./,Did someone promise the manager a office?,Y,,0,37,promised,5,2,4,10,2,1,4,2496,1563013863446,N,4403,0
223,1,31,target,target_12,G,/+/The new manager * promised a better office * worked * much harder./,Did someone promise the manager a office?,Y,,0,37,a,6,2,5,10,2,2,4,440,1563013863886,N,4403,0
223,1,31,target,target_12,G,/+/The new manager * promised a better office * worked * much harder./,Did someone promise the manager a office?,Y,,0,37,better,7,2,6,10,2,3,4,943,1563013864830,N,4403,0
223,1,31,target,target_12,G,/+/The new manager * promised a better office * worked * much harder./,Did someone promise the manager a office?,Y,,0,37,office,8,2,7,10,2,4,4,512,1563013865342,N,4403,0
223,1,31,target,target_12,G,/+/The new manager * promised a better office * worked * much harder./,Did someone promise the manager a office?,Y,,0,37,worked,9,2,8,10,3,1,1,544,1563013865886,N,4403,0
223,1,31,target,target_12,G,/+/The new manager * promised a better office * worked * much harder./,Did someone promise the manager a office?,Y,,0,37,much,10,2,9,10,4,1,2,448,1563013866334,N,4403,0
223,1,31,target,target_12,G,/+/The new manager * promised a better office * worked * much harder./,Did someone promise the manager a office?,Y,,0,37,harder.,11,2,10,10,4,2,2,648,1563013866982,N,4403,0
223,1,32,filler,filler_26,,/+/The magazine was expanded greatly in the number of pages./,Was the magazine expanded?,Y,,0,38,+,1,1,1,1,1,1,1,632,1563013872519,Y,3571,1
223,1,32,filler,filler_26,,/+/The magazine was expanded greatly in the number of pages./,Was the magazine expanded?,Y,,0,38,The,2,2,1,10,1,1,10,375,1563013872894,Y,3571,1
223,1,32,filler,filler_26,,/+/The magazine was expanded greatly in the number of pages./,Was the magazine expanded?,Y,,0,38,magazine,3,2,2,10,1,2,10,920,1563013873814,Y,3571,1
223,1,32,filler,filler_26,,/+/The magazine was expanded greatly in the number of pages./,Was the magazine expanded?,Y,,0,38,was,4,2,3,10,1,3,10,455,1563013874269,Y,3571,1
223,1,32,filler,filler_26,,/+/The magazine was expanded greatly in the number of pages./,Was the magazine expanded?,Y,,0,38,expanded,5,2,4,10,1,4,10,561,1563013874830,Y,3571,1
223,1,32,filler,filler_26,,/+/The magazine was expanded greatly in the number of pages./,Was the magazine expanded?,Y,,0,38,greatly,6,2,5,10,1,5,10,976,1563013875806,Y,3571,1
223,1,32,filler,filler_26,,/+/The magazine was expanded greatly in the number of pages./,Was the magazine expanded?,Y,,0,38,in,7,2,6,10,1,6,10,431,1563013876237,Y,3571,1
223,1,32,filler,filler_26,,/+/The magazine was expanded greatly in the number of pages./,Was the magazine expanded?,Y,,0,38,the,8,2,7,10,1,7,10,593,1563013876830,Y,3571,1
223,1,32,filler,filler_26,,/+/The magazine was expanded greatly in the number of pages./,Was the magazine expanded?,Y,,0,38,number,9,2,8,10,1,8,10,543,1563013877373,Y,3571,1
223,1,32,filler,filler_26,,/+/The magazine was expanded greatly in the number of pages./,Was the magazine expanded?,Y,,0,38,of,10,2,9,10,1,9,10,489,1563013877862,Y,3571,1
223,1,32,filler,filler_26,,/+/The magazine was expanded greatly in the number of pages./,Was the magazine expanded?,Y,,0,38,pages.,11,2,10,10,1,10,10,1072,1563013878934,Y,3571,1
223,1,33,filler,filler_16,,/+/The student with blue eyes made many mistakes of all the class./,Did the student with blue eyes never make mistakes?,N,,0,39,+,1,1,1,1,1,1,1,398,1563013883405,N,2771,1
