dat_Subject,list,display_order,type,id,con,fab_stimulus,fab_question,fab_key,fab_instruction,fab_feedback,dat_Trial,dat_Window,dat_WindowSequence,dat_LoopNumber,dat_LoopPosition,dat_LoopSum,dat_AreaNumber,dat_AreaPosition,dat_AreaSum,dat_ReactionTime,dat_Time,dat_Ans,dat_AnsReactionTime,dat_Accuracy
213,1,p1,practice,practice_1,,/+/The patient listened to the doctor's advice after he felt hopeless./,Did the patient follow the doctor?,Y,ins.jpg,1,1,+,1,1,1,1,1,1,1,6616,1562929710900,Y,5935,1
213,1,p1,practice,practice_1,,/+/The patient listened to the doctor's advice after he felt hopeless./,Did the patient follow the doctor?,Y,ins.jpg,1,1,The,2,2,1,11,1,1,11,399,1562929711299,Y,5935,1
213,1,p1,practice,practice_1,,/+/The patient listened to the doctor's advice after he felt hopeless./,Did the patient follow the doctor?,Y,ins.jpg,1,1,patient,3,2,2,11,1,2,11,439,1562929711739,Y,5935,1
213,1,p1,practice,practice_1,,/+/The patient listened to the doctor's advice after he felt hopeless./,Did the patient follow the doctor?,Y,ins.jpg,1,1,listened,4,2,3,11,1,3,11,511,1562929712251,Y,5935,1
213,1,p1,practice,practice_1,,/+/The patient listened to the doctor's advice after he felt hopeless./,Did the patient follow the doctor?,Y,ins.jpg,1,1,to,5,2,4,11,1,4,11,351,1562929712603,Y,5935,1
213,1,p1,practice,practice_1,,/+/The patient listened to the doctor's advice after he felt hopeless./,Did the patient follow the doctor?,Y,ins.jpg,1,1,the,6,2,5,11,1,5,11,280,1562929712883,Y,5935,1
213,1,p1,practice,practice_1,,/+/The patient listened to the doctor's advice after he felt hopeless./,Did the patient follow the doctor?,Y,ins.jpg,1,1,doctor's,7,2,6,11,1,6,11,272,1562929713155,Y,5935,1
213,1,p1,practice,practice_1,,/+/The patient listened to the doctor's advice after he felt hopeless./,Did the patient follow the doctor?,Y,ins.jpg,1,1,advice,8,2,7,11,1,7,11,368,1562929713523,Y,5935,1
213,1,p1,practice,practice_1,,/+/The patient listened to the doctor's advice after he felt hopeless./,Did the patient follow the doctor?,Y,ins.jpg,1,1,after,9,2,8,11,1,8,11,408,1562929713931,Y,5935,1
213,1,p1,practice,practice_1,,/+/The patient listened to the doctor's advice after he felt hopeless./,Did the patient follow the doctor?,Y,ins.jpg,1,1,he,10,2,9,11,1,9,11,384,1562929714315,Y,5935,1
213,1,p1,practice,practice_1,,/+/The patient listened to the doctor's advice after he felt hopeless./,Did the patient follow the doctor?,Y,ins.jpg,1,1,felt,11,2,10,11,1,10,11,384,1562929714699,Y,5935,1
213,1,p1,practice,practice_1,,/+/The patient listened to the doctor's advice after he felt hopeless./,Did the patient follow the doctor?,Y,ins.jpg,1,1,hopeless.,12,2,11,11,1,11,11,3648,1562929718347,Y,5935,1
213,1,p2,practice,practice_2,,/+/The visitors knew little about how the painting was created./,Did the visitors know how the painting was created?,N,,1,2,+,1,1,1,1,1,1,1,1456,1562929726243,N,3326,1
213,1,p2,practice,practice_2,,/+/The visitors knew little about how the painting was created./,Did the visitors know how the painting was created?,N,,1,2,The,2,2,1,10,1,1,10,408,1562929726651,N,3326,1
213,1,p2,practice,practice_2,,/+/The visitors knew little about how the painting was created./,Did the visitors know how the painting was created?,N,,1,2,visitors,3,2,2,10,1,2,10,264,1562929726915,N,3326,1
213,1,p2,practice,practice_2,,/+/The visitors knew little about how the painting was created./,Did the visitors know how the painting was created?,N,,1,2,knew,4,2,3,10,1,3,10,256,1562929727171,N,3326,1
213,1,p2,practice,practice_2,,/+/The visitors knew little about how the painting was created./,Did the visitors know how the painting was created?,N,,1,2,little,5,2,4,10,1,4,10,655,1562929727826,N,3326,1
213,1,p2,practice,practice_2,,/+/The visitors knew little about how the painting was created./,Did the visitors know how the painting was created?,N,,1,2,about,6,2,5,10,1,5,10,345,1562929728171,N,3326,1
213,1,p2,practice,practice_2,,/+/The visitors knew little about how the painting was created./,Did the visitors know how the painting was created?,N,,1,2,how,7,2,6,10,1,6,10,320,1562929728491,N,3326,1
213,1,p2,practice,practice_2,,/+/The visitors knew little about how the painting was created./,Did the visitors know how the painting was created?,N,,1,2,the,8,2,7,10,1,7,10,303,1562929728794,N,3326,1
213,1,p2,practice,practice_2,,/+/The visitors knew little about how the painting was created./,Did the visitors know how the painting was created?,N,,1,2,painting,9,2,8,10,1,8,10,280,1562929729075,N,3326,1
213,1,p2,practice,practice_2,,/+/The visitors knew little about how the painting was created./,Did the visitors know how the painting was created?,N,,1,2,was,10,2,9,10,1,9,10,408,1562929729483,N,3326,1
213,1,p2,practice,practice_2,,/+/The visitors knew little about how the painting was created./,Did the visitors know how the painting was created?,N,,1,2,created.,11,2,10,10,1,10,10,383,1562929729866,N,3326,1
213,1,p3,practice,practice_3,,/+/The old lady lived further away from the city center./,Did the old lady live in the city center?,N,,1,3,+,1,1,1,1,1,1,1,463,1562929734163,N,2226,1
213,1,p3,practice,practice_3,,/+/The old lady lived further away from the city center./,Did the old lady live in the city center?,N,,1,3,The,2,2,1,10,1,1,10,352,1562929734515,N,2226,1
213,1,p3,practice,practice_3,,/+/The old lady lived further away from the city center./,Did the old lady live in the city center?,N,,1,3,old,3,2,2,10,1,2,10,280,1562929734795,N,2226,1
213,1,p3,practice,practice_3,,/+/The old lady lived further away from the city center./,Did the old lady live in the city center?,N,,1,3,lady,4,2,3,10,1,3,10,303,1562929735098,N,2226,1
213,1,p3,practice,practice_3,,/+/The old lady lived further away from the city center./,Did the old lady live in the city center?,N,,1,3,lived,5,2,4,10,1,4,10,673,1562929735771,N,2226,1
213,1,p3,practice,practice_3,,/+/The old lady lived further away from the city center./,Did the old lady live in the city center?,N,,1,3,further,6,2,5,10,1,5,10,448,1562929736219,N,2226,1
213,1,p3,practice,practice_3,,/+/The old lady lived further away from the city center./,Did the old lady live in the city center?,N,,1,3,away,7,2,6,10,1,6,10,544,1562929736763,N,2226,1
213,1,p3,practice,practice_3,,/+/The old lady lived further away from the city center./,Did the old lady live in the city center?,N,,1,3,from,8,2,7,10,1,7,10,367,1562929737130,N,2226,1
213,1,p3,practice,practice_3,,/+/The old lady lived further away from the city center./,Did the old lady live in the city center?,N,,1,3,the,9,2,8,10,1,8,10,361,1562929737491,N,2226,1
213,1,p3,practice,practice_3,,/+/The old lady lived further away from the city center./,Did the old lady live in the city center?,N,,1,3,city,10,2,9,10,1,9,10,344,1562929737835,N,2226,1
213,1,p3,practice,practice_3,,/+/The old lady lived further away from the city center./,Did the old lady live in the city center?,N,,1,3,center.,11,2,10,10,1,10,10,352,1562929738187,N,2226,1
213,1,p4,practice,practice_4,,/+/The maid looked at the hostess with a nervous smile./,Did the maid feel nervous? ,Y,,1,4,+,1,1,1,1,1,1,1,319,1562929741235,Y,7165,1
213,1,p4,practice,practice_4,,/+/The maid looked at the hostess with a nervous smile./,Did the maid feel nervous? ,Y,,1,4,The,2,2,1,10,1,1,10,296,1562929741531,Y,7165,1
213,1,p4,practice,practice_4,,/+/The maid looked at the hostess with a nervous smile./,Did the maid feel nervous? ,Y,,1,4,maid,3,2,2,10,1,2,10,248,1562929741779,Y,7165,1
213,1,p4,practice,practice_4,,/+/The maid looked at the hostess with a nervous smile./,Did the maid feel nervous? ,Y,,1,4,looked,4,2,3,10,1,3,10,1032,1562929742811,Y,7165,1
213,1,p4,practice,practice_4,,/+/The maid looked at the hostess with a nervous smile./,Did the maid feel nervous? ,Y,,1,4,maid,5,2,2,10,1,2,10,311,1562929743122,Y,7165,1
213,1,p4,practice,practice_4,,/+/The maid looked at the hostess with a nervous smile./,Did the maid feel nervous? ,Y,,1,4,looked,6,2,3,10,1,3,10,281,1562929743403,Y,7165,1
213,1,p4,practice,practice_4,,/+/The maid looked at the hostess with a nervous smile./,Did the maid feel nervous? ,Y,,1,4,at,7,2,4,10,1,4,10,256,1562929743659,Y,7165,1
213,1,p4,practice,practice_4,,/+/The maid looked at the hostess with a nervous smile./,Did the maid feel nervous? ,Y,,1,4,the,8,2,5,10,1,5,10,288,1562929743947,Y,7165,1
213,1,p4,practice,practice_4,,/+/The maid looked at the hostess with a nervous smile./,Did the maid feel nervous? ,Y,,1,4,hostess,9,2,6,10,1,6,10,408,1562929744355,Y,7165,1
213,1,p4,practice,practice_4,,/+/The maid looked at the hostess with a nervous smile./,Did the maid feel nervous? ,Y,,1,4,with,10,2,7,10,1,7,10,440,1562929744795,Y,7165,1
213,1,p4,practice,practice_4,,/+/The maid looked at the hostess with a nervous smile./,Did the maid feel nervous? ,Y,,1,4,a,11,2,8,10,1,8,10,383,1562929745178,Y,7165,1
213,1,p4,practice,practice_4,,/+/The maid looked at the hostess with a nervous smile./,Did the maid feel nervous? ,Y,,1,4,nervous,12,2,9,10,1,9,10,329,1562929745507,Y,7165,1
213,1,p4,practice,practice_4,,/+/The maid looked at the hostess with a nervous smile./,Did the maid feel nervous? ,Y,,1,4,smile.,13,2,10,10,1,10,10,767,1562929746274,Y,7165,1
213,1,p5,practice,practice_5,,/+/The young lady * sent a red rose * became * really embarrassed./,Did the lady send a red rose?,N,,1,5,+,1,1,1,1,1,1,1,4743,1562929758695,N,1844,1
213,1,p5,practice,practice_5,,/+/The young lady * sent a red rose * became * really embarrassed./,Did the lady send a red rose?,N,,1,5,The,2,2,1,10,1,1,3,423,1562929759118,N,1844,1
213,1,p5,practice,practice_5,,/+/The young lady * sent a red rose * became * really embarrassed./,Did the lady send a red rose?,N,,1,5,young,3,2,2,10,1,2,3,351,1562929759470,N,1844,1
213,1,p5,practice,practice_5,,/+/The young lady * sent a red rose * became * really embarrassed./,Did the lady send a red rose?,N,,1,5,lady,4,2,3,10,1,3,3,280,1562929759750,N,1844,1
213,1,p5,practice,practice_5,,/+/The young lady * sent a red rose * became * really embarrassed./,Did the lady send a red rose?,N,,1,5,sent,5,2,4,10,2,1,4,303,1562929760054,N,1844,1
213,1,p5,practice,practice_5,,/+/The young lady * sent a red rose * became * really embarrassed./,Did the lady send a red rose?,N,,1,5,a,6,2,5,10,2,2,4,385,1562929760439,N,1844,1
213,1,p5,practice,practice_5,,/+/The young lady * sent a red rose * became * really embarrassed./,Did the lady send a red rose?,N,,1,5,red,7,2,6,10,2,3,4,279,1562929760718,N,1844,1
213,1,p5,practice,practice_5,,/+/The young lady * sent a red rose * became * really embarrassed./,Did the lady send a red rose?,N,,1,5,rose,8,2,7,10,2,4,4,295,1562929761014,N,1844,1
213,1,p5,practice,practice_5,,/+/The young lady * sent a red rose * became * really embarrassed./,Did the lady send a red rose?,N,,1,5,became,9,2,8,10,3,1,1,343,1562929761358,N,1844,1
213,1,p5,practice,practice_5,,/+/The young lady * sent a red rose * became * really embarrassed./,Did the lady send a red rose?,N,,1,5,really,10,2,9,10,4,1,2,335,1562929761694,N,1844,1
213,1,p5,practice,practice_5,,/+/The young lady * sent a red rose * became * really embarrassed./,Did the lady send a red rose?,N,,1,5,embarrassed.,11,2,10,10,4,2,2,1256,1562929762950,N,1844,1
213,1,p5,practice,practice_5,,/+/The young lady * sent a red rose * became * really embarrassed./,Did the lady send a red rose?,N,,1,5,really,12,2,9,10,4,1,2,199,1562929763150,N,1844,1
213,1,p5,practice,practice_5,,/+/The young lady * sent a red rose * became * really embarrassed./,Did the lady send a red rose?,N,,1,5,became,13,2,8,10,3,1,1,143,1562929763294,N,1844,1
213,1,p5,practice,practice_5,,/+/The young lady * sent a red rose * became * really embarrassed./,Did the lady send a red rose?,N,,1,5,rose,14,2,7,10,2,4,4,167,1562929763462,N,1844,1
213,1,p5,practice,practice_5,,/+/The young lady * sent a red rose * became * really embarrassed./,Did the lady send a red rose?,N,,1,5,red,15,2,6,10,2,3,4,328,1562929763790,N,1844,1
213,1,p5,practice,practice_5,,/+/The young lady * sent a red rose * became * really embarrassed./,Did the lady send a red rose?,N,,1,5,a,16,2,5,10,2,2,4,208,1562929763998,N,1844,1
213,1,p5,practice,practice_5,,/+/The young lady * sent a red rose * became * really embarrassed./,Did the lady send a red rose?,N,,1,5,sent,17,2,4,10,2,1,4,336,1562929764334,N,1844,1
213,1,p5,practice,practice_5,,/+/The young lady * sent a red rose * became * really embarrassed./,Did the lady send a red rose?,N,,1,5,lady,18,2,3,10,1,3,3,431,1562929764766,N,1844,1
213,1,p5,practice,practice_5,,/+/The young lady * sent a red rose * became * really embarrassed./,Did the lady send a red rose?,N,,1,5,sent,19,2,4,10,2,1,4,265,1562929765031,N,1844,1
213,1,p5,practice,practice_5,,/+/The young lady * sent a red rose * became * really embarrassed./,Did the lady send a red rose?,N,,1,5,a,20,2,5,10,2,2,4,255,1562929765286,N,1844,1
213,1,p5,practice,practice_5,,/+/The young lady * sent a red rose * became * really embarrassed./,Did the lady send a red rose?,N,,1,5,red,21,2,6,10,2,3,4,320,1562929765606,N,1844,1
213,1,p5,practice,practice_5,,/+/The young lady * sent a red rose * became * really embarrassed./,Did the lady send a red rose?,N,,1,5,rose,22,2,7,10,2,4,4,328,1562929765934,N,1844,1
213,1,p5,practice,practice_5,,/+/The young lady * sent a red rose * became * really embarrassed./,Did the lady send a red rose?,N,,1,5,became,23,2,8,10,3,1,1,376,1562929766310,N,1844,1
213,1,p5,practice,practice_5,,/+/The young lady * sent a red rose * became * really embarrassed./,Did the lady send a red rose?,N,,1,5,really,24,2,9,10,4,1,2,648,1562929766958,N,1844,1
213,1,p5,practice,practice_5,,/+/The young lady * sent a red rose * became * really embarrassed./,Did the lady send a red rose?,N,,1,5,became,25,2,8,10,3,1,1,152,1562929767110,N,1844,1
213,1,p5,practice,practice_5,,/+/The young lady * sent a red rose * became * really embarrassed./,Did the lady send a red rose?,N,,1,5,rose,26,2,7,10,2,4,4,152,1562929767262,N,1844,1
213,1,p5,practice,practice_5,,/+/The young lady * sent a red rose * became * really embarrassed./,Did the lady send a red rose?,N,,1,5,red,27,2,6,10,2,3,4,152,1562929767414,N,1844,1
213,1,p5,practice,practice_5,,/+/The young lady * sent a red rose * became * really embarrassed./,Did the lady send a red rose?,N,,1,5,a,28,2,5,10,2,2,4,152,1562929767566,N,1844,1
213,1,p5,practice,practice_5,,/+/The young lady * sent a red rose * became * really embarrassed./,Did the lady send a red rose?,N,,1,5,sent,29,2,4,10,2,1,4,320,1562929767886,N,1844,1
213,1,p5,practice,practice_5,,/+/The young lady * sent a red rose * became * really embarrassed./,Did the lady send a red rose?,N,,1,5,lady,30,2,3,10,1,3,3,511,1562929768398,N,1844,1
213,1,p5,practice,practice_5,,/+/The young lady * sent a red rose * became * really embarrassed./,Did the lady send a red rose?,N,,1,5,young,31,2,2,10,1,2,3,480,1562929768878,N,1844,1
213,1,p5,practice,practice_5,,/+/The young lady * sent a red rose * became * really embarrassed./,Did the lady send a red rose?,N,,1,5,The,32,2,1,10,1,1,3,336,1562929769214,N,1844,1
213,1,p5,practice,practice_5,,/+/The young lady * sent a red rose * became * really embarrassed./,Did the lady send a red rose?,N,,1,5,young,33,2,2,10,1,2,3,320,1562929769534,N,1844,1
213,1,p5,practice,practice_5,,/+/The young lady * sent a red rose * became * really embarrassed./,Did the lady send a red rose?,N,,1,5,lady,34,2,3,10,1,3,3,288,1562929769822,N,1844,1
213,1,p5,practice,practice_5,,/+/The young lady * sent a red rose * became * really embarrassed./,Did the lady send a red rose?,N,,1,5,sent,35,2,4,10,2,1,4,615,1562929770438,N,1844,1
213,1,p5,practice,practice_5,,/+/The young lady * sent a red rose * became * really embarrassed./,Did the lady send a red rose?,N,,1,5,a,36,2,5,10,2,2,4,800,1562929771238,N,1844,1
213,1,p5,practice,practice_5,,/+/The young lady * sent a red rose * became * really embarrassed./,Did the lady send a red rose?,N,,1,5,red,37,2,6,10,2,3,4,519,1562929771757,N,1844,1
213,1,p5,practice,practice_5,,/+/The young lady * sent a red rose * became * really embarrassed./,Did the lady send a red rose?,N,,1,5,rose,38,2,7,10,2,4,4,632,1562929772390,N,1844,1
213,1,p5,practice,practice_5,,/+/The young lady * sent a red rose * became * really embarrassed./,Did the lady send a red rose?,N,,1,5,became,39,2,8,10,3,1,1,2800,1562929775190,N,1844,1
213,1,p5,practice,practice_5,,/+/The young lady * sent a red rose * became * really embarrassed./,Did the lady send a red rose?,N,,1,5,really,40,2,9,10,4,1,2,192,1562929775382,N,1844,1
213,1,p5,practice,practice_5,,/+/The young lady * sent a red rose * became * really embarrassed./,Did the lady send a red rose?,N,,1,5,embarrassed.,41,2,10,10,4,2,2,343,1562929775725,N,1844,1
213,1,p6,practice,practice_6,,/+/The busy workers * who were * offered a delicious pizza * felt * not so hungry./,Did someone offer the workers a pizza?,Y,,1,6,+,1,1,1,1,1,1,1,350,1562929778422,Y,3906,1
213,1,p6,practice,practice_6,,/+/The busy workers * who were * offered a delicious pizza * felt * not so hungry./,Did someone offer the workers a pizza?,Y,,1,6,The,2,2,1,13,1,1,3,296,1562929778718,Y,3906,1
213,1,p6,practice,practice_6,,/+/The busy workers * who were * offered a delicious pizza * felt * not so hungry./,Did someone offer the workers a pizza?,Y,,1,6,busy,3,2,2,13,1,2,3,288,1562929779006,Y,3906,1
213,1,p6,practice,practice_6,,/+/The busy workers * who were * offered a delicious pizza * felt * not so hungry./,Did someone offer the workers a pizza?,Y,,1,6,workers,4,2,3,13,1,3,3,256,1562929779262,Y,3906,1
213,1,p6,practice,practice_6,,/+/The busy workers * who were * offered a delicious pizza * felt * not so hungry./,Did someone offer the workers a pizza?,Y,,1,6,who,5,2,4,13,2,1,2,336,1562929779598,Y,3906,1
213,1,p6,practice,practice_6,,/+/The busy workers * who were * offered a delicious pizza * felt * not so hungry./,Did someone offer the workers a pizza?,Y,,1,6,were,6,2,5,13,2,2,2,328,1562929779926,Y,3906,1
213,1,p6,practice,practice_6,,/+/The busy workers * who were * offered a delicious pizza * felt * not so hungry./,Did someone offer the workers a pizza?,Y,,1,6,offered,7,2,6,13,3,1,4,360,1562929780286,Y,3906,1
213,1,p6,practice,practice_6,,/+/The busy workers * who were * offered a delicious pizza * felt * not so hungry./,Did someone offer the workers a pizza?,Y,,1,6,a,8,2,7,13,3,2,4,280,1562929780566,Y,3906,1
213,1,p6,practice,practice_6,,/+/The busy workers * who were * offered a delicious pizza * felt * not so hungry./,Did someone offer the workers a pizza?,Y,,1,6,delicious,9,2,8,13,3,3,4,448,1562929781014,Y,3906,1
213,1,p6,practice,practice_6,,/+/The busy workers * who were * offered a delicious pizza * felt * not so hungry./,Did someone offer the workers a pizza?,Y,,1,6,pizza,10,2,9,13,3,4,4,392,1562929781406,Y,3906,1
213,1,p6,practice,practice_6,,/+/The busy workers * who were * offered a delicious pizza * felt * not so hungry./,Did someone offer the workers a pizza?,Y,,1,6,felt,11,2,10,13,4,1,1,383,1562929781789,Y,3906,1
213,1,p6,practice,practice_6,,/+/The busy workers * who were * offered a delicious pizza * felt * not so hungry./,Did someone offer the workers a pizza?,Y,,1,6,not,12,2,11,13,5,1,3,296,1562929782086,Y,3906,1
213,1,p6,practice,practice_6,,/+/The busy workers * who were * offered a delicious pizza * felt * not so hungry./,Did someone offer the workers a pizza?,Y,,1,6,so,13,2,12,13,5,2,3,344,1562929782430,Y,3906,1
213,1,p6,practice,practice_6,,/+/The busy workers * who were * offered a delicious pizza * felt * not so hungry./,Did someone offer the workers a pizza?,Y,,1,6,hungry.,14,2,13,13,5,3,3,1160,1562929783590,Y,3906,1
213,1,1,filler,filler_6,,/+/The girl sang very well through learning experiences from her tutor./,Did the girl's tutor do a lot of help? ,Y,练习结束，现在开始正式实验。,0,7,+,1,1,1,1,1,1,1,1327,1562929838436,Y,4587,1
213,1,1,filler,filler_6,,/+/The girl sang very well through learning experiences from her tutor./,Did the girl's tutor do a lot of help? ,Y,练习结束，现在开始正式实验。,0,7,The,2,2,1,11,1,1,11,696,1562929839132,Y,4587,1
213,1,1,filler,filler_6,,/+/The girl sang very well through learning experiences from her tutor./,Did the girl's tutor do a lot of help? ,Y,练习结束，现在开始正式实验。,0,7,girl,3,2,2,11,1,2,11,344,1562929839476,Y,4587,1
213,1,1,filler,filler_6,,/+/The girl sang very well through learning experiences from her tutor./,Did the girl's tutor do a lot of help? ,Y,练习结束，现在开始正式实验。,0,7,sang,4,2,3,11,1,3,11,264,1562929839740,Y,4587,1
213,1,1,filler,filler_6,,/+/The girl sang very well through learning experiences from her tutor./,Did the girl's tutor do a lot of help? ,Y,练习结束，现在开始正式实验。,0,7,very,5,2,4,11,1,4,11,360,1562929840100,Y,4587,1
213,1,1,filler,filler_6,,/+/The girl sang very well through learning experiences from her tutor./,Did the girl's tutor do a lot of help? ,Y,练习结束，现在开始正式实验。,0,7,well,6,2,5,11,1,5,11,240,1562929840340,Y,4587,1
213,1,1,filler,filler_6,,/+/The girl sang very well through learning experiences from her tutor./,Did the girl's tutor do a lot of help? ,Y,练习结束，现在开始正式实验。,0,7,through,7,2,6,11,1,6,11,224,1562929840564,Y,4587,1
213,1,1,filler,filler_6,,/+/The girl sang very well through learning experiences from her tutor./,Did the girl's tutor do a lot of help? ,Y,练习结束，现在开始正式实验。,0,7,learning,8,2,7,11,1,7,11,352,1562929840916,Y,4587,1
213,1,1,filler,filler_6,,/+/The girl sang very well through learning experiences from her tutor./,Did the girl's tutor do a lot of help? ,Y,练习结束，现在开始正式实验。,0,7,experiences,9,2,8,11,1,8,11,472,1562929841388,Y,4587,1
213,1,1,filler,filler_6,,/+/The girl sang very well through learning experiences from her tutor./,Did the girl's tutor do a lot of help? ,Y,练习结束，现在开始正式实验。,0,7,from,10,2,9,11,1,9,11,576,1562929841964,Y,4587,1
213,1,1,filler,filler_6,,/+/The girl sang very well through learning experiences from her tutor./,Did the girl's tutor do a lot of help? ,Y,练习结束，现在开始正式实验。,0,7,her,11,2,10,11,1,10,11,440,1562929842404,Y,4587,1
213,1,1,filler,filler_6,,/+/The girl sang very well through learning experiences from her tutor./,Did the girl's tutor do a lot of help? ,Y,练习结束，现在开始正式实验。,0,7,tutor.,12,2,11,11,1,11,11,343,1562929842747,Y,4587,1
213,1,2,filler,filler_7,,/+/Some important papers which lay in the office were stolen last night./,Were the papers still safe?,N,,0,8,+,1,1,1,1,1,1,1,408,1562929848244,N,1842,1
213,1,2,filler,filler_7,,/+/Some important papers which lay in the office were stolen last night./,Were the papers still safe?,N,,0,8,Some,2,2,1,12,1,1,12,456,1562929848700,N,1842,1
213,1,2,filler,filler_7,,/+/Some important papers which lay in the office were stolen last night./,Were the papers still safe?,N,,0,8,important,3,2,2,12,1,2,12,280,1562929848980,N,1842,1
213,1,2,filler,filler_7,,/+/Some important papers which lay in the office were stolen last night./,Were the papers still safe?,N,,0,8,papers,4,2,3,12,1,3,12,847,1562929849827,N,1842,1
213,1,2,filler,filler_7,,/+/Some important papers which lay in the office were stolen last night./,Were the papers still safe?,N,,0,8,which,5,2,4,12,1,4,12,393,1562929850220,N,1842,1
213,1,2,filler,filler_7,,/+/Some important papers which lay in the office were stolen last night./,Were the papers still safe?,N,,0,8,lay,6,2,5,12,1,5,12,384,1562929850604,N,1842,1
213,1,2,filler,filler_7,,/+/Some important papers which lay in the office were stolen last night./,Were the papers still safe?,N,,0,8,in,7,2,6,12,1,6,12,344,1562929850948,N,1842,1
213,1,2,filler,filler_7,,/+/Some important papers which lay in the office were stolen last night./,Were the papers still safe?,N,,0,8,the,8,2,7,12,1,7,12,264,1562929851212,N,1842,1
213,1,2,filler,filler_7,,/+/Some important papers which lay in the office were stolen last night./,Were the papers still safe?,N,,0,8,office,9,2,8,12,1,8,12,256,1562929851468,N,1842,1
213,1,2,filler,filler_7,,/+/Some important papers which lay in the office were stolen last night./,Were the papers still safe?,N,,0,8,were,10,2,9,12,1,9,12,383,1562929851851,N,1842,1
213,1,2,filler,filler_7,,/+/Some important papers which lay in the office were stolen last night./,Were the papers still safe?,N,,0,8,stolen,11,2,10,12,1,10,12,353,1562929852204,N,1842,1
213,1,2,filler,filler_7,,/+/Some important papers which lay in the office were stolen last night./,Were the papers still safe?,N,,0,8,last,12,2,11,12,1,11,12,591,1562929852795,N,1842,1
213,1,2,filler,filler_7,,/+/Some important papers which lay in the office were stolen last night./,Were the papers still safe?,N,,0,8,night.,13,2,12,12,1,12,12,721,1562929853516,N,1842,1
213,1,3,target,target_1,G,/+/The cotton farmers * warned about the bad floods * had * no other crops./,Did the farmers warn about the floods?,N,,0,9,+,1,1,1,1,1,1,1,297,1562929856156,Y,7139,0
213,1,3,target,target_1,G,/+/The cotton farmers * warned about the bad floods * had * no other crops./,Did the farmers warn about the floods?,N,,0,9,The,2,2,1,12,1,1,3,384,1562929856540,Y,7139,0
213,1,3,target,target_1,G,/+/The cotton farmers * warned about the bad floods * had * no other crops./,Did the farmers warn about the floods?,N,,0,9,cotton,3,2,2,12,1,2,3,640,1562929857180,Y,7139,0
213,1,3,target,target_1,G,/+/The cotton farmers * warned about the bad floods * had * no other crops./,Did the farmers warn about the floods?,N,,0,9,farmers,4,2,3,12,1,3,3,448,1562929857628,Y,7139,0
213,1,3,target,target_1,G,/+/The cotton farmers * warned about the bad floods * had * no other crops./,Did the farmers warn about the floods?,N,,0,9,warned,5,2,4,12,2,1,5,632,1562929858260,Y,7139,0
213,1,3,target,target_1,G,/+/The cotton farmers * warned about the bad floods * had * no other crops./,Did the farmers warn about the floods?,N,,0,9,about,6,2,5,12,2,2,5,472,1562929858732,Y,7139,0
213,1,3,target,target_1,G,/+/The cotton farmers * warned about the bad floods * had * no other crops./,Did the farmers warn about the floods?,N,,0,9,the,7,2,6,12,2,3,5,344,1562929859076,Y,7139,0
213,1,3,target,target_1,G,/+/The cotton farmers * warned about the bad floods * had * no other crops./,Did the farmers warn about the floods?,N,,0,9,bad,8,2,7,12,2,4,5,336,1562929859412,Y,7139,0
213,1,3,target,target_1,G,/+/The cotton farmers * warned about the bad floods * had * no other crops./,Did the farmers warn about the floods?,N,,0,9,floods,9,2,8,12,2,5,5,616,1562929860028,Y,7139,0
213,1,3,target,target_1,G,/+/The cotton farmers * warned about the bad floods * had * no other crops./,Did the farmers warn about the floods?,N,,0,9,had,10,2,9,12,3,1,1,823,1562929860851,Y,7139,0
213,1,3,target,target_1,G,/+/The cotton farmers * warned about the bad floods * had * no other crops./,Did the farmers warn about the floods?,N,,0,9,no,11,2,10,12,4,1,3,456,1562929861308,Y,7139,0
213,1,3,target,target_1,G,/+/The cotton farmers * warned about the bad floods * had * no other crops./,Did the farmers warn about the floods?,N,,0,9,other,12,2,11,12,4,2,3,520,1562929861828,Y,7139,0
213,1,3,target,target_1,G,/+/The cotton farmers * warned about the bad floods * had * no other crops./,Did the farmers warn about the floods?,N,,0,9,crops.,13,2,12,12,4,3,3,344,1562929862172,Y,7139,0
213,1,4,filler,filler_10,,/+/There was a big hole in the road which blocked the traffic./,Was there a big hole in the road?,Y,,0,10,+,1,1,1,1,1,1,1,398,1562929870211,Y,2204,1
213,1,4,filler,filler_10,,/+/There was a big hole in the road which blocked the traffic./,Was there a big hole in the road?,Y,,0,10,There,2,2,1,12,1,1,12,391,1562929870603,Y,2204,1
213,1,4,filler,filler_10,,/+/There was a big hole in the road which blocked the traffic./,Was there a big hole in the road?,Y,,0,10,was,3,2,2,12,1,2,12,431,1562929871035,Y,2204,1
213,1,4,filler,filler_10,,/+/There was a big hole in the road which blocked the traffic./,Was there a big hole in the road?,Y,,0,10,a,4,2,3,12,1,3,12,392,1562929871427,Y,2204,1
213,1,4,filler,filler_10,,/+/There was a big hole in the road which blocked the traffic./,Was there a big hole in the road?,Y,,0,10,big,5,2,4,12,1,4,12,447,1562929871875,Y,2204,1
213,1,4,filler,filler_10,,/+/There was a big hole in the road which blocked the traffic./,Was there a big hole in the road?,Y,,0,10,hole,6,2,5,12,1,5,12,408,1562929872283,Y,2204,1
213,1,4,filler,filler_10,,/+/There was a big hole in the road which blocked the traffic./,Was there a big hole in the road?,Y,,0,10,in,7,2,6,12,1,6,12,423,1562929872707,Y,2204,1
213,1,4,filler,filler_10,,/+/There was a big hole in the road which blocked the traffic./,Was there a big hole in the road?,Y,,0,10,the,8,2,7,12,1,7,12,359,1562929873067,Y,2204,1
213,1,4,filler,filler_10,,/+/There was a big hole in the road which blocked the traffic./,Was there a big hole in the road?,Y,,0,10,road,9,2,8,12,1,8,12,256,1562929873323,Y,2204,1
213,1,4,filler,filler_10,,/+/There was a big hole in the road which blocked the traffic./,Was there a big hole in the road?,Y,,0,10,which,10,2,9,12,1,9,12,544,1562929873867,Y,2204,1
213,1,4,filler,filler_10,,/+/There was a big hole in the road which blocked the traffic./,Was there a big hole in the road?,Y,,0,10,blocked,11,2,10,12,1,10,12,399,1562929874267,Y,2204,1
213,1,4,filler,filler_10,,/+/There was a big hole in the road which blocked the traffic./,Was there a big hole in the road?,Y,,0,10,the,12,2,11,12,1,11,12,351,1562929874619,Y,2204,1
213,1,4,filler,filler_10,,/+/There was a big hole in the road which blocked the traffic./,Was there a big hole in the road?,Y,,0,10,traffic.,13,2,12,12,1,12,12,576,1562929875195,Y,2204,1
213,1,5,target,target_2,C,/+/The sunburned boys * who were * served the hot dogs * got * a stomach ache./,Did the boys serve the hot dogs?,N,,0,11,+,1,1,1,1,1,1,1,327,1562929878227,N,4331,1
213,1,5,target,target_2,C,/+/The sunburned boys * who were * served the hot dogs * got * a stomach ache./,Did the boys serve the hot dogs?,N,,0,11,The,2,2,1,13,1,1,3,312,1562929878539,N,4331,1
213,1,5,target,target_2,C,/+/The sunburned boys * who were * served the hot dogs * got * a stomach ache./,Did the boys serve the hot dogs?,N,,0,11,sunburned,3,2,2,13,1,2,3,336,1562929878875,N,4331,1
213,1,5,target,target_2,C,/+/The sunburned boys * who were * served the hot dogs * got * a stomach ache./,Did the boys serve the hot dogs?,N,,0,11,boys,4,2,3,13,1,3,3,800,1562929879675,N,4331,1
213,1,5,target,target_2,C,/+/The sunburned boys * who were * served the hot dogs * got * a stomach ache./,Did the boys serve the hot dogs?,N,,0,11,sunburned,5,2,2,13,1,2,3,496,1562929880171,N,4331,1
213,1,5,target,target_2,C,/+/The sunburned boys * who were * served the hot dogs * got * a stomach ache./,Did the boys serve the hot dogs?,N,,0,11,boys,6,2,3,13,1,3,3,328,1562929880499,N,4331,1
213,1,5,target,target_2,C,/+/The sunburned boys * who were * served the hot dogs * got * a stomach ache./,Did the boys serve the hot dogs?,N,,0,11,who,7,2,4,13,2,1,2,416,1562929880915,N,4331,1
213,1,5,target,target_2,C,/+/The sunburned boys * who were * served the hot dogs * got * a stomach ache./,Did the boys serve the hot dogs?,N,,0,11,were,8,2,5,13,2,2,2,496,1562929881411,N,4331,1
213,1,5,target,target_2,C,/+/The sunburned boys * who were * served the hot dogs * got * a stomach ache./,Did the boys serve the hot dogs?,N,,0,11,served,9,2,6,13,3,1,4,400,1562929881811,N,4331,1
213,1,5,target,target_2,C,/+/The sunburned boys * who were * served the hot dogs * got * a stomach ache./,Did the boys serve the hot dogs?,N,,0,11,the,10,2,7,13,3,2,4,423,1562929882234,N,4331,1
213,1,5,target,target_2,C,/+/The sunburned boys * who were * served the hot dogs * got * a stomach ache./,Did the boys serve the hot dogs?,N,,0,11,hot,11,2,8,13,3,3,4,504,1562929882739,N,4331,1
213,1,5,target,target_2,C,/+/The sunburned boys * who were * served the hot dogs * got * a stomach ache./,Did the boys serve the hot dogs?,N,,0,11,dogs,12,2,9,13,3,4,4,408,1562929883147,N,4331,1
213,1,5,target,target_2,C,/+/The sunburned boys * who were * served the hot dogs * got * a stomach ache./,Did the boys serve the hot dogs?,N,,0,11,got,13,2,10,13,4,1,1,424,1562929883571,N,4331,1
213,1,5,target,target_2,C,/+/The sunburned boys * who were * served the hot dogs * got * a stomach ache./,Did the boys serve the hot dogs?,N,,0,11,a,14,2,11,13,5,1,3,328,1562929883899,N,4331,1
213,1,5,target,target_2,C,/+/The sunburned boys * who were * served the hot dogs * got * a stomach ache./,Did the boys serve the hot dogs?,N,,0,11,stomach,15,2,12,13,5,2,3,359,1562929884258,N,4331,1
213,1,5,target,target_2,C,/+/The sunburned boys * who were * served the hot dogs * got * a stomach ache./,Did the boys serve the hot dogs?,N,,0,11,ache.,16,2,13,13,5,3,3,721,1562929884979,N,4331,1
213,1,6,filler,filler_17,,/+/The students who failed the exam were asked to take it again./,Should all students take the exam again?,N,,0,12,+,1,1,1,1,1,1,1,247,1562929890059,N,3100,1
213,1,6,filler,filler_17,,/+/The students who failed the exam were asked to take it again./,Should all students take the exam again?,N,,0,12,The,2,2,1,12,1,1,12,351,1562929890410,N,3100,1
213,1,6,filler,filler_17,,/+/The students who failed the exam were asked to take it again./,Should all students take the exam again?,N,,0,12,students,3,2,2,12,1,2,12,329,1562929890739,N,3100,1
213,1,6,filler,filler_17,,/+/The students who failed the exam were asked to take it again./,Should all students take the exam again?,N,,0,12,who,4,2,3,12,1,3,12,440,1562929891179,N,3100,1
213,1,6,filler,filler_17,,/+/The students who failed the exam were asked to take it again./,Should all students take the exam again?,N,,0,12,failed,5,2,4,12,1,4,12,440,1562929891619,N,3100,1
213,1,6,filler,filler_17,,/+/The students who failed the exam were asked to take it again./,Should all students take the exam again?,N,,0,12,the,6,2,5,12,1,5,12,384,1562929892003,N,3100,1
213,1,6,filler,filler_17,,/+/The students who failed the exam were asked to take it again./,Should all students take the exam again?,N,,0,12,exam,7,2,6,12,1,6,12,375,1562929892378,N,3100,1
213,1,6,filler,filler_17,,/+/The students who failed the exam were asked to take it again./,Should all students take the exam again?,N,,0,12,were,8,2,7,12,1,7,12,377,1562929892755,N,3100,1
213,1,6,filler,filler_17,,/+/The students who failed the exam were asked to take it again./,Should all students take the exam again?,N,,0,12,asked,9,2,8,12,1,8,12,288,1562929893043,N,3100,1
213,1,6,filler,filler_17,,/+/The students who failed the exam were asked to take it again./,Should all students take the exam again?,N,,0,12,to,10,2,9,12,1,9,12,320,1562929893363,N,3100,1
213,1,6,filler,filler_17,,/+/The students who failed the exam were asked to take it again./,Should all students take the exam again?,N,,0,12,take,11,2,10,12,1,10,12,336,1562929893699,N,3100,1
213,1,6,filler,filler_17,,/+/The students who failed the exam were asked to take it again./,Should all students take the exam again?,N,,0,12,it,12,2,11,12,1,11,12,256,1562929893955,N,3100,1
213,1,6,filler,filler_17,,/+/The students who failed the exam were asked to take it again./,Should all students take the exam again?,N,,0,12,again.,13,2,12,12,1,12,12,312,1562929894267,N,3100,1
213,1,7,filler,filler_25,,/+/The suitcase which Mike bought has been broken down by his son./,Has the suitcase been broken by Mike?,N,,0,13,+,1,1,1,1,1,1,1,279,1562929898148,N,2875,1
213,1,7,filler,filler_25,,/+/The suitcase which Mike bought has been broken down by his son./,Has the suitcase been broken by Mike?,N,,0,13,The,2,2,1,12,1,1,12,304,1562929898452,N,2875,1
213,1,7,filler,filler_25,,/+/The suitcase which Mike bought has been broken down by his son./,Has the suitcase been broken by Mike?,N,,0,13,suitcase,3,2,2,12,1,2,12,256,1562929898708,N,2875,1
213,1,7,filler,filler_25,,/+/The suitcase which Mike bought has been broken down by his son./,Has the suitcase been broken by Mike?,N,,0,13,which,4,2,3,12,1,3,12,592,1562929899300,N,2875,1
213,1,7,filler,filler_25,,/+/The suitcase which Mike bought has been broken down by his son./,Has the suitcase been broken by Mike?,N,,0,13,Mike,5,2,4,12,1,4,12,744,1562929900044,N,2875,1
213,1,7,filler,filler_25,,/+/The suitcase which Mike bought has been broken down by his son./,Has the suitcase been broken by Mike?,N,,0,13,bought,6,2,5,12,1,5,12,272,1562929900316,N,2875,1
213,1,7,filler,filler_25,,/+/The suitcase which Mike bought has been broken down by his son./,Has the suitcase been broken by Mike?,N,,0,13,has,7,2,6,12,1,6,12,344,1562929900660,N,2875,1
213,1,7,filler,filler_25,,/+/The suitcase which Mike bought has been broken down by his son./,Has the suitcase been broken by Mike?,N,,0,13,been,8,2,7,12,1,7,12,288,1562929900948,N,2875,1
213,1,7,filler,filler_25,,/+/The suitcase which Mike bought has been broken down by his son./,Has the suitcase been broken by Mike?,N,,0,13,broken,9,2,8,12,1,8,12,208,1562929901156,N,2875,1
213,1,7,filler,filler_25,,/+/The suitcase which Mike bought has been broken down by his son./,Has the suitcase been broken by Mike?,N,,0,13,down,10,2,9,12,1,9,12,288,1562929901444,N,2875,1
213,1,7,filler,filler_25,,/+/The suitcase which Mike bought has been broken down by his son./,Has the suitcase been broken by Mike?,N,,0,13,by,11,2,10,12,1,10,12,368,1562929901812,N,2875,1
213,1,7,filler,filler_25,,/+/The suitcase which Mike bought has been broken down by his son./,Has the suitcase been broken by Mike?,N,,0,13,his,12,2,11,12,1,11,12,240,1562929902052,N,2875,1
213,1,7,filler,filler_25,,/+/The suitcase which Mike bought has been broken down by his son./,Has the suitcase been broken by Mike?,N,,0,13,son.,13,2,12,12,1,12,12,240,1562929902292,N,2875,1
213,1,8,filler,filler_24,,/+/The roommate has married the man who comes from the west of China./,Has the roomate married?,Y,,0,14,+,1,1,1,1,1,1,1,304,1562929905972,Y,1874,1
213,1,8,filler,filler_24,,/+/The roommate has married the man who comes from the west of China./,Has the roomate married?,Y,,0,14,The,2,2,1,13,1,1,13,336,1562929906308,Y,1874,1
213,1,8,filler,filler_24,,/+/The roommate has married the man who comes from the west of China./,Has the roomate married?,Y,,0,14,roommate,3,2,2,13,1,2,13,224,1562929906532,Y,1874,1
213,1,8,filler,filler_24,,/+/The roommate has married the man who comes from the west of China./,Has the roomate married?,Y,,0,14,has,4,2,3,13,1,3,13,384,1562929906916,Y,1874,1
213,1,8,filler,filler_24,,/+/The roommate has married the man who comes from the west of China./,Has the roomate married?,Y,,0,14,married,5,2,4,13,1,4,13,728,1562929907644,Y,1874,1
213,1,8,filler,filler_24,,/+/The roommate has married the man who comes from the west of China./,Has the roomate married?,Y,,0,14,the,6,2,5,13,1,5,13,408,1562929908052,Y,1874,1
213,1,8,filler,filler_24,,/+/The roommate has married the man who comes from the west of China./,Has the roomate married?,Y,,0,14,man,7,2,6,13,1,6,13,384,1562929908436,Y,1874,1
213,1,8,filler,filler_24,,/+/The roommate has married the man who comes from the west of China./,Has the roomate married?,Y,,0,14,who,8,2,7,13,1,7,13,416,1562929908852,Y,1874,1
213,1,8,filler,filler_24,,/+/The roommate has married the man who comes from the west of China./,Has the roomate married?,Y,,0,14,comes,9,2,8,13,1,8,13,344,1562929909196,Y,1874,1
213,1,8,filler,filler_24,,/+/The roommate has married the man who comes from the west of China./,Has the roomate married?,Y,,0,14,from,10,2,9,13,1,9,13,384,1562929909580,Y,1874,1
213,1,8,filler,filler_24,,/+/The roommate has married the man who comes from the west of China./,Has the roomate married?,Y,,0,14,the,11,2,10,13,1,10,13,296,1562929909876,Y,1874,1
213,1,8,filler,filler_24,,/+/The roommate has married the man who comes from the west of China./,Has the roomate married?,Y,,0,14,west,12,2,11,13,1,11,13,304,1562929910180,Y,1874,1
213,1,8,filler,filler_24,,/+/The roommate has married the man who comes from the west of China./,Has the roomate married?,Y,,0,14,of,13,2,12,13,1,12,13,495,1562929910675,Y,1874,1
213,1,8,filler,filler_24,,/+/The roommate has married the man who comes from the west of China./,Has the roomate married?,Y,,0,14,China.,14,2,13,13,1,13,13,737,1562929911412,Y,1874,1
213,1,9,target,target_15,G,/+/The confused student * asked about a question * lowered * his head silently./,Did the student ask about a question?,N,,0,15,+,1,1,1,1,1,1,1,368,1562929914156,N,1875,1
213,1,9,target,target_15,G,/+/The confused student * asked about a question * lowered * his head silently./,Did the student ask about a question?,N,,0,15,The,2,2,1,11,1,1,3,328,1562929914484,N,1875,1
213,1,9,target,target_15,G,/+/The confused student * asked about a question * lowered * his head silently./,Did the student ask about a question?,N,,0,15,confused,3,2,2,11,1,2,3,295,1562929914779,N,1875,1
213,1,9,target,target_15,G,/+/The confused student * asked about a question * lowered * his head silently./,Did the student ask about a question?,N,,0,15,student,4,2,3,11,1,3,3,449,1562929915228,N,1875,1
213,1,9,target,target_15,G,/+/The confused student * asked about a question * lowered * his head silently./,Did the student ask about a question?,N,,0,15,asked,5,2,4,11,2,1,4,992,1562929916220,N,1875,1
213,1,9,target,target_15,G,/+/The confused student * asked about a question * lowered * his head silently./,Did the student ask about a question?,N,,0,15,about,6,2,5,11,2,2,4,519,1562929916739,N,1875,1
213,1,9,target,target_15,G,/+/The confused student * asked about a question * lowered * his head silently./,Did the student ask about a question?,N,,0,15,a,7,2,6,11,2,3,4,353,1562929917092,N,1875,1
213,1,9,target,target_15,G,/+/The confused student * asked about a question * lowered * his head silently./,Did the student ask about a question?,N,,0,15,question,8,2,7,11,2,4,4,312,1562929917404,N,1875,1
213,1,9,target,target_15,G,/+/The confused student * asked about a question * lowered * his head silently./,Did the student ask about a question?,N,,0,15,lowered,9,2,8,11,3,1,1,447,1562929917851,N,1875,1
213,1,9,target,target_15,G,/+/The confused student * asked about a question * lowered * his head silently./,Did the student ask about a question?,N,,0,15,his,10,2,9,11,4,1,3,337,1562929918188,N,1875,1
213,1,9,target,target_15,G,/+/The confused student * asked about a question * lowered * his head silently./,Did the student ask about a question?,N,,0,15,head,11,2,10,11,4,2,3,440,1562929918628,N,1875,1
213,1,9,target,target_15,G,/+/The confused student * asked about a question * lowered * his head silently./,Did the student ask about a question?,N,,0,15,silently.,12,2,11,11,4,3,3,1528,1562929920156,N,1875,1
213,1,10,filler,filler_22,,/+/The girl's life was saved because the doctor acted so well./,Did the girl die?,N,,0,16,+,1,1,1,1,1,1,1,374,1562929922907,N,1284,1
213,1,10,filler,filler_22,,/+/The girl's life was saved because the doctor acted so well./,Did the girl die?,N,,0,16,The,2,2,1,11,1,1,11,321,1562929923228,N,1284,1
213,1,10,filler,filler_22,,/+/The girl's life was saved because the doctor acted so well./,Did the girl die?,N,,0,16,girl's,3,2,2,11,1,2,11,288,1562929923516,N,1284,1
213,1,10,filler,filler_22,,/+/The girl's life was saved because the doctor acted so well./,Did the girl die?,N,,0,16,life,4,2,3,11,1,3,11,399,1562929923915,N,1284,1
213,1,10,filler,filler_22,,/+/The girl's life was saved because the doctor acted so well./,Did the girl die?,N,,0,16,was,5,2,4,11,1,4,11,385,1562929924300,N,1284,1
213,1,10,filler,filler_22,,/+/The girl's life was saved because the doctor acted so well./,Did the girl die?,N,,0,16,saved,6,2,5,11,1,5,11,328,1562929924628,N,1284,1
213,1,10,filler,filler_22,,/+/The girl's life was saved because the doctor acted so well./,Did the girl die?,N,,0,16,because,7,2,6,11,1,6,11,271,1562929924899,N,1284,1
213,1,10,filler,filler_22,,/+/The girl's life was saved because the doctor acted so well./,Did the girl die?,N,,0,16,the,8,2,7,11,1,7,11,529,1562929925428,N,1284,1
213,1,10,filler,filler_22,,/+/The girl's life was saved because the doctor acted so well./,Did the girl die?,N,,0,16,doctor,9,2,8,11,1,8,11,368,1562929925796,N,1284,1
213,1,10,filler,filler_22,,/+/The girl's life was saved because the doctor acted so well./,Did the girl die?,N,,0,16,acted,10,2,9,11,1,9,11,344,1562929926140,N,1284,1
213,1,10,filler,filler_22,,/+/The girl's life was saved because the doctor acted so well./,Did the girl die?,N,,0,16,so,11,2,10,11,1,10,11,488,1562929926628,N,1284,1
213,1,10,filler,filler_22,,/+/The girl's life was saved because the doctor acted so well./,Did the girl die?,N,,0,16,well.,12,2,11,11,1,11,11,303,1562929926931,N,1284,1
213,1,11,target,target_4,G,/+/The convicted criminal * watched at the railway station * was * following the boy./,Did someone watch the criminal?,Y,,0,17,+,1,1,1,1,1,1,1,302,1562929929019,Y,3555,1
213,1,11,target,target_4,G,/+/The convicted criminal * watched at the railway station * was * following the boy./,Did someone watch the criminal?,Y,,0,17,The,2,2,1,12,1,1,3,289,1562929929308,Y,3555,1
213,1,11,target,target_4,G,/+/The convicted criminal * watched at the railway station * was * following the boy./,Did someone watch the criminal?,Y,,0,17,convicted,3,2,2,12,1,2,3,272,1562929929580,Y,3555,1
213,1,11,target,target_4,G,/+/The convicted criminal * watched at the railway station * was * following the boy./,Did someone watch the criminal?,Y,,0,17,criminal,4,2,3,12,1,3,3,792,1562929930372,Y,3555,1
213,1,11,target,target_4,G,/+/The convicted criminal * watched at the railway station * was * following the boy./,Did someone watch the criminal?,Y,,0,17,watched,5,2,4,12,2,1,5,1024,1562929931396,Y,3555,1
213,1,11,target,target_4,G,/+/The convicted criminal * watched at the railway station * was * following the boy./,Did someone watch the criminal?,Y,,0,17,at,6,2,5,12,2,2,5,392,1562929931788,Y,3555,1
213,1,11,target,target_4,G,/+/The convicted criminal * watched at the railway station * was * following the boy./,Did someone watch the criminal?,Y,,0,17,the,7,2,6,12,2,3,5,247,1562929932035,Y,3555,1
213,1,11,target,target_4,G,/+/The convicted criminal * watched at the railway station * was * following the boy./,Did someone watch the criminal?,Y,,0,17,railway,8,2,7,12,2,4,5,369,1562929932404,Y,3555,1
213,1,11,target,target_4,G,/+/The convicted criminal * watched at the railway station * was * following the boy./,Did someone watch the criminal?,Y,,0,17,station,9,2,8,12,2,5,5,447,1562929932851,Y,3555,1
213,1,11,target,target_4,G,/+/The convicted criminal * watched at the railway station * was * following the boy./,Did someone watch the criminal?,Y,,0,17,was,10,2,9,12,3,1,1,447,1562929933299,Y,3555,1
213,1,11,target,target_4,G,/+/The convicted criminal * watched at the railway station * was * following the boy./,Did someone watch the criminal?,Y,,0,17,following,11,2,10,12,4,1,3,352,1562929933652,Y,3555,1
213,1,11,target,target_4,G,/+/The convicted criminal * watched at the railway station * was * following the boy./,Did someone watch the criminal?,Y,,0,17,the,12,2,11,12,4,2,3,599,1562929934251,Y,3555,1
213,1,11,target,target_4,G,/+/The convicted criminal * watched at the railway station * was * following the boy./,Did someone watch the criminal?,Y,,0,17,boy.,13,2,12,12,4,3,3,1831,1562929936083,Y,3555,1
213,1,11,target,target_4,G,/+/The convicted criminal * watched at the railway station * was * following the boy./,Did someone watch the criminal?,Y,,0,17,the,14,2,11,12,4,2,3,136,1562929936219,Y,3555,1
213,1,11,target,target_4,G,/+/The convicted criminal * watched at the railway station * was * following the boy./,Did someone watch the criminal?,Y,,0,17,following,15,2,10,12,4,1,3,135,1562929936355,Y,3555,1
213,1,11,target,target_4,G,/+/The convicted criminal * watched at the railway station * was * following the boy./,Did someone watch the criminal?,Y,,0,17,was,16,2,9,12,3,1,1,120,1562929936475,Y,3555,1
213,1,11,target,target_4,G,/+/The convicted criminal * watched at the railway station * was * following the boy./,Did someone watch the criminal?,Y,,0,17,station,17,2,8,12,2,5,5,127,1562929936603,Y,3555,1
213,1,11,target,target_4,G,/+/The convicted criminal * watched at the railway station * was * following the boy./,Did someone watch the criminal?,Y,,0,17,railway,18,2,7,12,2,4,5,119,1562929936723,Y,3555,1
213,1,11,target,target_4,G,/+/The convicted criminal * watched at the railway station * was * following the boy./,Did someone watch the criminal?,Y,,0,17,the,19,2,6,12,2,3,5,119,1562929936843,Y,3555,1
213,1,11,target,target_4,G,/+/The convicted criminal * watched at the railway station * was * following the boy./,Did someone watch the criminal?,Y,,0,17,at,20,2,5,12,2,2,5,127,1562929936971,Y,3555,1
213,1,11,target,target_4,G,/+/The convicted criminal * watched at the railway station * was * following the boy./,Did someone watch the criminal?,Y,,0,17,watched,21,2,4,12,2,1,5,175,1562929937147,Y,3555,1
213,1,11,target,target_4,G,/+/The convicted criminal * watched at the railway station * was * following the boy./,Did someone watch the criminal?,Y,,0,17,criminal,22,2,3,12,1,3,3,240,1562929937387,Y,3555,1
213,1,11,target,target_4,G,/+/The convicted criminal * watched at the railway station * was * following the boy./,Did someone watch the criminal?,Y,,0,17,convicted,23,2,2,12,1,2,3,399,1562929937787,Y,3555,1
213,1,11,target,target_4,G,/+/The convicted criminal * watched at the railway station * was * following the boy./,Did someone watch the criminal?,Y,,0,17,criminal,24,2,3,12,1,3,3,207,1562929937995,Y,3555,1
213,1,11,target,target_4,G,/+/The convicted criminal * watched at the railway station * was * following the boy./,Did someone watch the criminal?,Y,,0,17,watched,25,2,4,12,2,1,5,328,1562929938323,Y,3555,1
213,1,11,target,target_4,G,/+/The convicted criminal * watched at the railway station * was * following the boy./,Did someone watch the criminal?,Y,,0,17,at,26,2,5,12,2,2,5,215,1562929938539,Y,3555,1
213,1,11,target,target_4,G,/+/The convicted criminal * watched at the railway station * was * following the boy./,Did someone watch the criminal?,Y,,0,17,the,27,2,6,12,2,3,5,199,1562929938739,Y,3555,1
213,1,11,target,target_4,G,/+/The convicted criminal * watched at the railway station * was * following the boy./,Did someone watch the criminal?,Y,,0,17,railway,28,2,7,12,2,4,5,223,1562929938963,Y,3555,1
213,1,11,target,target_4,G,/+/The convicted criminal * watched at the railway station * was * following the boy./,Did someone watch the criminal?,Y,,0,17,station,29,2,8,12,2,5,5,183,1562929939147,Y,3555,1
213,1,11,target,target_4,G,/+/The convicted criminal * watched at the railway station * was * following the boy./,Did someone watch the criminal?,Y,,0,17,was,30,2,9,12,3,1,1,168,1562929939315,Y,3555,1
213,1,11,target,target_4,G,/+/The convicted criminal * watched at the railway station * was * following the boy./,Did someone watch the criminal?,Y,,0,17,following,31,2,10,12,4,1,3,183,1562929939499,Y,3555,1
213,1,11,target,target_4,G,/+/The convicted criminal * watched at the railway station * was * following the boy./,Did someone watch the criminal?,Y,,0,17,the,32,2,11,12,4,2,3,207,1562929939707,Y,3555,1
213,1,11,target,target_4,G,/+/The convicted criminal * watched at the railway station * was * following the boy./,Did someone watch the criminal?,Y,,0,17,boy.,33,2,12,12,4,3,3,408,1562929940115,Y,3555,1
213,1,12,filler,filler_35,,/+/The company building was completed successfully in the third quarter./,Was the company building completed?,Y,,0,18,+,1,1,1,1,1,1,1,384,1562929944555,Y,2419,1
213,1,12,filler,filler_35,,/+/The company building was completed successfully in the third quarter./,Was the company building completed?,Y,,0,18,The,2,2,1,10,1,1,10,368,1562929944923,Y,2419,1
213,1,12,filler,filler_35,,/+/The company building was completed successfully in the third quarter./,Was the company building completed?,Y,,0,18,company,3,2,2,10,1,2,10,240,1562929945163,Y,2419,1
213,1,12,filler,filler_35,,/+/The company building was completed successfully in the third quarter./,Was the company building completed?,Y,,0,18,building,4,2,3,10,1,3,10,232,1562929945395,Y,2419,1
213,1,12,filler,filler_35,,/+/The company building was completed successfully in the third quarter./,Was the company building completed?,Y,,0,18,was,5,2,4,10,1,4,10,240,1562929945635,Y,2419,1
213,1,12,filler,filler_35,,/+/The company building was completed successfully in the third quarter./,Was the company building completed?,Y,,0,18,completed,6,2,5,10,1,5,10,1176,1562929946811,Y,2419,1
213,1,12,filler,filler_35,,/+/The company building was completed successfully in the third quarter./,Was the company building completed?,Y,,0,18,was,7,2,4,10,1,4,10,296,1562929947107,Y,2419,1
213,1,12,filler,filler_35,,/+/The company building was completed successfully in the third quarter./,Was the company building completed?,Y,,0,18,completed,8,2,5,10,1,5,10,272,1562929947379,Y,2419,1
213,1,12,filler,filler_35,,/+/The company building was completed successfully in the third quarter./,Was the company building completed?,Y,,0,18,successfully,9,2,6,10,1,6,10,408,1562929947787,Y,2419,1
213,1,12,filler,filler_35,,/+/The company building was completed successfully in the third quarter./,Was the company building completed?,Y,,0,18,in,10,2,7,10,1,7,10,1200,1562929948987,Y,2419,1
213,1,12,filler,filler_35,,/+/The company building was completed successfully in the third quarter./,Was the company building completed?,Y,,0,18,the,11,2,8,10,1,8,10,392,1562929949379,Y,2419,1
213,1,12,filler,filler_35,,/+/The company building was completed successfully in the third quarter./,Was the company building completed?,Y,,0,18,third,12,2,9,10,1,9,10,608,1562929949987,Y,2419,1
213,1,12,filler,filler_35,,/+/The company building was completed successfully in the third quarter./,Was the company building completed?,Y,,0,18,quarter.,13,2,10,10,1,10,10,1120,1562929951107,Y,2419,1
213,1,13,target,target_8,C,/+/The older kids * who were * showed all the dances * felt * amazed at the party./,Did the older kids show the dances?,N,,0,19,+,1,1,1,1,1,1,1,399,1562929954427,Y,4164,0
213,1,13,target,target_8,C,/+/The older kids * who were * showed all the dances * felt * amazed at the party./,Did the older kids show the dances?,N,,0,19,The,2,2,1,14,1,1,3,352,1562929954779,Y,4164,0
213,1,13,target,target_8,C,/+/The older kids * who were * showed all the dances * felt * amazed at the party./,Did the older kids show the dances?,N,,0,19,older,3,2,2,14,1,2,3,1640,1562929956419,Y,4164,0
213,1,13,target,target_8,C,/+/The older kids * who were * showed all the dances * felt * amazed at the party./,Did the older kids show the dances?,N,,0,19,kids,4,2,3,14,1,3,3,320,1562929956739,Y,4164,0
213,1,13,target,target_8,C,/+/The older kids * who were * showed all the dances * felt * amazed at the party./,Did the older kids show the dances?,N,,0,19,who,5,2,4,14,2,1,2,376,1562929957115,Y,4164,0
213,1,13,target,target_8,C,/+/The older kids * who were * showed all the dances * felt * amazed at the party./,Did the older kids show the dances?,N,,0,19,were,6,2,5,14,2,2,2,400,1562929957515,Y,4164,0
213,1,13,target,target_8,C,/+/The older kids * who were * showed all the dances * felt * amazed at the party./,Did the older kids show the dances?,N,,0,19,showed,7,2,6,14,3,1,4,296,1562929957811,Y,4164,0
213,1,13,target,target_8,C,/+/The older kids * who were * showed all the dances * felt * amazed at the party./,Did the older kids show the dances?,N,,0,19,all,8,2,7,14,3,2,4,457,1562929958268,Y,4164,0
213,1,13,target,target_8,C,/+/The older kids * who were * showed all the dances * felt * amazed at the party./,Did the older kids show the dances?,N,,0,19,the,9,2,8,14,3,3,4,320,1562929958588,Y,4164,0
213,1,13,target,target_8,C,/+/The older kids * who were * showed all the dances * felt * amazed at the party./,Did the older kids show the dances?,N,,0,19,dances,10,2,9,14,3,4,4,240,1562929958828,Y,4164,0
213,1,13,target,target_8,C,/+/The older kids * who were * showed all the dances * felt * amazed at the party./,Did the older kids show the dances?,N,,0,19,felt,11,2,10,14,4,1,1,575,1562929959403,Y,4164,0
213,1,13,target,target_8,C,/+/The older kids * who were * showed all the dances * felt * amazed at the party./,Did the older kids show the dances?,N,,0,19,amazed,12,2,11,14,5,1,4,401,1562929959804,Y,4164,0
213,1,13,target,target_8,C,/+/The older kids * who were * showed all the dances * felt * amazed at the party./,Did the older kids show the dances?,N,,0,19,at,13,2,12,14,5,2,4,480,1562929960284,Y,4164,0
213,1,13,target,target_8,C,/+/The older kids * who were * showed all the dances * felt * amazed at the party./,Did the older kids show the dances?,N,,0,19,the,14,2,13,14,5,3,4,1880,1562929962164,Y,4164,0
213,1,13,target,target_8,C,/+/The older kids * who were * showed all the dances * felt * amazed at the party./,Did the older kids show the dances?,N,,0,19,party.,15,2,14,14,5,4,4,424,1562929962588,Y,4164,0
213,1,14,filler,filler_27,,/+/The letter that came this morning was from a friendly classmate./,Did the letter arrive this morning?,Y,,0,20,+,1,1,1,1,1,1,1,351,1562929967604,Y,3411,1
213,1,14,filler,filler_27,,/+/The letter that came this morning was from a friendly classmate./,Did the letter arrive this morning?,Y,,0,20,The,2,2,1,11,1,1,11,408,1562929968012,Y,3411,1
213,1,14,filler,filler_27,,/+/The letter that came this morning was from a friendly classmate./,Did the letter arrive this morning?,Y,,0,20,letter,3,2,2,11,1,2,11,312,1562929968324,Y,3411,1
213,1,14,filler,filler_27,,/+/The letter that came this morning was from a friendly classmate./,Did the letter arrive this morning?,Y,,0,20,that,4,2,3,11,1,3,11,304,1562929968628,Y,3411,1
213,1,14,filler,filler_27,,/+/The letter that came this morning was from a friendly classmate./,Did the letter arrive this morning?,Y,,0,20,came,5,2,4,11,1,4,11,416,1562929969044,Y,3411,1
213,1,14,filler,filler_27,,/+/The letter that came this morning was from a friendly classmate./,Did the letter arrive this morning?,Y,,0,20,this,6,2,5,11,1,5,11,415,1562929969459,Y,3411,1
213,1,14,filler,filler_27,,/+/The letter that came this morning was from a friendly classmate./,Did the letter arrive this morning?,Y,,0,20,morning,7,2,6,11,1,6,11,401,1562929969860,Y,3411,1
213,1,14,filler,filler_27,,/+/The letter that came this morning was from a friendly classmate./,Did the letter arrive this morning?,Y,,0,20,was,8,2,7,11,1,7,11,360,1562929970220,Y,3411,1
213,1,14,filler,filler_27,,/+/The letter that came this morning was from a friendly classmate./,Did the letter arrive this morning?,Y,,0,20,from,9,2,8,11,1,8,11,263,1562929970483,Y,3411,1
213,1,14,filler,filler_27,,/+/The letter that came this morning was from a friendly classmate./,Did the letter arrive this morning?,Y,,0,20,a,10,2,9,11,1,9,11,233,1562929970716,Y,3411,1
213,1,14,filler,filler_27,,/+/The letter that came this morning was from a friendly classmate./,Did the letter arrive this morning?,Y,,0,20,friendly,11,2,10,11,1,10,11,328,1562929971044,Y,3411,1
213,1,14,filler,filler_27,,/+/The letter that came this morning was from a friendly classmate./,Did the letter arrive this morning?,Y,,0,20,classmate.,12,2,11,11,1,11,11,240,1562929971284,Y,3411,1
213,1,15,filler,filler_15,,/+/The book contained many useful information which could benefit the health./,Could the book be helpful for health?,Y,,0,21,+,1,1,1,1,1,1,1,342,1562929975539,Y,1635,1
213,1,15,filler,filler_15,,/+/The book contained many useful information which could benefit the health./,Could the book be helpful for health?,Y,,0,21,The,2,2,1,11,1,1,11,400,1562929975939,Y,1635,1
213,1,15,filler,filler_15,,/+/The book contained many useful information which could benefit the health./,Could the book be helpful for health?,Y,,0,21,book,3,2,2,11,1,2,11,303,1562929976243,Y,1635,1
213,1,15,filler,filler_15,,/+/The book contained many useful information which could benefit the health./,Could the book be helpful for health?,Y,,0,21,contained,4,2,3,11,1,3,11,327,1562929976571,Y,1635,1
213,1,15,filler,filler_15,,/+/The book contained many useful information which could benefit the health./,Could the book be helpful for health?,Y,,0,21,many,5,2,4,11,1,4,11,441,1562929977012,Y,1635,1
213,1,15,filler,filler_15,,/+/The book contained many useful information which could benefit the health./,Could the book be helpful for health?,Y,,0,21,useful,6,2,5,11,1,5,11,351,1562929977363,Y,1635,1
213,1,15,filler,filler_15,,/+/The book contained many useful information which could benefit the health./,Could the book be helpful for health?,Y,,0,21,information,7,2,6,11,1,6,11,351,1562929977715,Y,1635,1
213,1,15,filler,filler_15,,/+/The book contained many useful information which could benefit the health./,Could the book be helpful for health?,Y,,0,21,which,8,2,7,11,1,7,11,447,1562929978163,Y,1635,1
213,1,15,filler,filler_15,,/+/The book contained many useful information which could benefit the health./,Could the book be helpful for health?,Y,,0,21,could,9,2,8,11,1,8,11,287,1562929978451,Y,1635,1
213,1,15,filler,filler_15,,/+/The book contained many useful information which could benefit the health./,Could the book be helpful for health?,Y,,0,21,benefit,10,2,9,11,1,9,11,279,1562929978731,Y,1635,1
213,1,15,filler,filler_15,,/+/The book contained many useful information which could benefit the health./,Could the book be helpful for health?,Y,,0,21,the,11,2,10,11,1,10,11,287,1562929979019,Y,1635,1
213,1,15,filler,filler_15,,/+/The book contained many useful information which could benefit the health./,Could the book be helpful for health?,Y,,0,21,health.,12,2,11,11,1,11,11,327,1562929979347,Y,1635,1
213,1,16,target,target_6,G,/+/The six volunteers * taught the complicated procedure * became * very good students./,Did the volunteers teach the procedure?,N,,0,22,+,1,1,1,1,1,1,1,191,1562929981683,N,4019,1
213,1,16,target,target_6,G,/+/The six volunteers * taught the complicated procedure * became * very good students./,Did the volunteers teach the procedure?,N,,0,22,The,2,2,1,11,1,1,3,368,1562929982051,N,4019,1
213,1,16,target,target_6,G,/+/The six volunteers * taught the complicated procedure * became * very good students./,Did the volunteers teach the procedure?,N,,0,22,six,3,2,2,11,1,2,3,279,1562929982331,N,4019,1
213,1,16,target,target_6,G,/+/The six volunteers * taught the complicated procedure * became * very good students./,Did the volunteers teach the procedure?,N,,0,22,volunteers,4,2,3,11,1,3,3,248,1562929982579,N,4019,1
213,1,16,target,target_6,G,/+/The six volunteers * taught the complicated procedure * became * very good students./,Did the volunteers teach the procedure?,N,,0,22,taught,5,2,4,11,2,1,4,1168,1562929983747,N,4019,1
213,1,16,target,target_6,G,/+/The six volunteers * taught the complicated procedure * became * very good students./,Did the volunteers teach the procedure?,N,,0,22,the,6,2,5,11,2,2,4,352,1562929984099,N,4019,1
213,1,16,target,target_6,G,/+/The six volunteers * taught the complicated procedure * became * very good students./,Did the volunteers teach the procedure?,N,,0,22,complicated,7,2,6,11,2,3,4,256,1562929984355,N,4019,1
213,1,16,target,target_6,G,/+/The six volunteers * taught the complicated procedure * became * very good students./,Did the volunteers teach the procedure?,N,,0,22,procedure,8,2,7,11,2,4,4,1000,1562929985355,N,4019,1
213,1,16,target,target_6,G,/+/The six volunteers * taught the complicated procedure * became * very good students./,Did the volunteers teach the procedure?,N,,0,22,complicated,9,2,6,11,2,3,4,560,1562929985915,N,4019,1
213,1,16,target,target_6,G,/+/The six volunteers * taught the complicated procedure * became * very good students./,Did the volunteers teach the procedure?,N,,0,22,the,10,2,5,11,2,2,4,160,1562929986075,N,4019,1
213,1,16,target,target_6,G,/+/The six volunteers * taught the complicated procedure * became * very good students./,Did the volunteers teach the procedure?,N,,0,22,taught,11,2,4,11,2,1,4,168,1562929986243,N,4019,1
213,1,16,target,target_6,G,/+/The six volunteers * taught the complicated procedure * became * very good students./,Did the volunteers teach the procedure?,N,,0,22,volunteers,12,2,3,11,1,3,3,151,1562929986395,N,4019,1
213,1,16,target,target_6,G,/+/The six volunteers * taught the complicated procedure * became * very good students./,Did the volunteers teach the procedure?,N,,0,22,six,13,2,2,11,1,2,3,160,1562929986555,N,4019,1
213,1,16,target,target_6,G,/+/The six volunteers * taught the complicated procedure * became * very good students./,Did the volunteers teach the procedure?,N,,0,22,The,14,2,1,11,1,1,3,1224,1562929987779,N,4019,1
213,1,16,target,target_6,G,/+/The six volunteers * taught the complicated procedure * became * very good students./,Did the volunteers teach the procedure?,N,,0,22,six,15,2,2,11,1,2,3,320,1562929988099,N,4019,1
213,1,16,target,target_6,G,/+/The six volunteers * taught the complicated procedure * became * very good students./,Did the volunteers teach the procedure?,N,,0,22,volunteers,16,2,3,11,1,3,3,232,1562929988331,N,4019,1
213,1,16,target,target_6,G,/+/The six volunteers * taught the complicated procedure * became * very good students./,Did the volunteers teach the procedure?,N,,0,22,taught,17,2,4,11,2,1,4,256,1562929988587,N,4019,1
213,1,16,target,target_6,G,/+/The six volunteers * taught the complicated procedure * became * very good students./,Did the volunteers teach the procedure?,N,,0,22,the,18,2,5,11,2,2,4,248,1562929988835,N,4019,1
213,1,16,target,target_6,G,/+/The six volunteers * taught the complicated procedure * became * very good students./,Did the volunteers teach the procedure?,N,,0,22,complicated,19,2,6,11,2,3,4,248,1562929989083,N,4019,1
213,1,16,target,target_6,G,/+/The six volunteers * taught the complicated procedure * became * very good students./,Did the volunteers teach the procedure?,N,,0,22,procedure,20,2,7,11,2,4,4,464,1562929989547,N,4019,1
213,1,16,target,target_6,G,/+/The six volunteers * taught the complicated procedure * became * very good students./,Did the volunteers teach the procedure?,N,,0,22,became,21,2,8,11,3,1,1,608,1562929990155,N,4019,1
213,1,16,target,target_6,G,/+/The six volunteers * taught the complicated procedure * became * very good students./,Did the volunteers teach the procedure?,N,,0,22,very,22,2,9,11,4,1,3,752,1562929990907,N,4019,1
213,1,16,target,target_6,G,/+/The six volunteers * taught the complicated procedure * became * very good students./,Did the volunteers teach the procedure?,N,,0,22,good,23,2,10,11,4,2,3,304,1562929991211,N,4019,1
213,1,16,target,target_6,G,/+/The six volunteers * taught the complicated procedure * became * very good students./,Did the volunteers teach the procedure?,N,,0,22,students.,24,2,11,11,4,3,3,320,1562929991531,N,4019,1
213,1,17,filler,filler_5,,/+/The author said that the new book was based on a real story./,Was the book entirely imaginary? ,N,,0,23,+,1,1,1,1,1,1,1,311,1562929996363,N,1787,1
213,1,17,filler,filler_5,,/+/The author said that the new book was based on a real story./,Was the book entirely imaginary? ,N,,0,23,The,2,2,1,13,1,1,13,328,1562929996691,N,1787,1
213,1,17,filler,filler_5,,/+/The author said that the new book was based on a real story./,Was the book entirely imaginary? ,N,,0,23,author,3,2,2,13,1,2,13,320,1562929997011,N,1787,1
213,1,17,filler,filler_5,,/+/The author said that the new book was based on a real story./,Was the book entirely imaginary? ,N,,0,23,said,4,2,3,13,1,3,13,488,1562929997499,N,1787,1
213,1,17,filler,filler_5,,/+/The author said that the new book was based on a real story./,Was the book entirely imaginary? ,N,,0,23,that,5,2,4,13,1,4,13,391,1562929997890,N,1787,1
213,1,17,filler,filler_5,,/+/The author said that the new book was based on a real story./,Was the book entirely imaginary? ,N,,0,23,the,6,2,5,13,1,5,13,576,1562929998467,N,1787,1
213,1,17,filler,filler_5,,/+/The author said that the new book was based on a real story./,Was the book entirely imaginary? ,N,,0,23,new,7,2,6,13,1,6,13,479,1562929998946,N,1787,1
213,1,17,filler,filler_5,,/+/The author said that the new book was based on a real story./,Was the book entirely imaginary? ,N,,0,23,book,8,2,7,13,1,7,13,321,1562929999267,N,1787,1
213,1,17,filler,filler_5,,/+/The author said that the new book was based on a real story./,Was the book entirely imaginary? ,N,,0,23,was,9,2,8,13,1,8,13,416,1562929999683,N,1787,1
213,1,17,filler,filler_5,,/+/The author said that the new book was based on a real story./,Was the book entirely imaginary? ,N,,0,23,based,10,2,9,13,1,9,13,335,1562930000018,N,1787,1
213,1,17,filler,filler_5,,/+/The author said that the new book was based on a real story./,Was the book entirely imaginary? ,N,,0,23,on,11,2,10,13,1,10,13,353,1562930000371,N,1787,1
213,1,17,filler,filler_5,,/+/The author said that the new book was based on a real story./,Was the book entirely imaginary? ,N,,0,23,a,12,2,11,13,1,11,13,336,1562930000707,N,1787,1
213,1,17,filler,filler_5,,/+/The author said that the new book was based on a real story./,Was the book entirely imaginary? ,N,,0,23,real,13,2,12,13,1,12,13,279,1562930000986,N,1787,1
213,1,17,filler,filler_5,,/+/The author said that the new book was based on a real story./,Was the book entirely imaginary? ,N,,0,23,story.,14,2,13,13,1,13,13,337,1562930001323,N,1787,1
213,1,18,filler,filler_38,,/+/The gatekeeper refused to hand over the door key to the man./,Did the gatekeeper refuse to hand over the key?,Y,,0,24,+,1,1,1,1,1,1,1,446,1562930004058,Y,1964,1
213,1,18,filler,filler_38,,/+/The gatekeeper refused to hand over the door key to the man./,Did the gatekeeper refuse to hand over the key?,Y,,0,24,The,2,2,1,12,1,1,12,1201,1562930005259,Y,1964,1
213,1,18,filler,filler_38,,/+/The gatekeeper refused to hand over the door key to the man./,Did the gatekeeper refuse to hand over the key?,Y,,0,24,gatekeeper,3,2,2,12,1,2,12,312,1562930005571,Y,1964,1
213,1,18,filler,filler_38,,/+/The gatekeeper refused to hand over the door key to the man./,Did the gatekeeper refuse to hand over the key?,Y,,0,24,refused,4,2,3,12,1,3,12,559,1562930006130,Y,1964,1
213,1,18,filler,filler_38,,/+/The gatekeeper refused to hand over the door key to the man./,Did the gatekeeper refuse to hand over the key?,Y,,0,24,gatekeeper,5,2,2,12,1,2,12,401,1562930006531,Y,1964,1
213,1,18,filler,filler_38,,/+/The gatekeeper refused to hand over the door key to the man./,Did the gatekeeper refuse to hand over the key?,Y,,0,24,refused,6,2,3,12,1,3,12,336,1562930006867,Y,1964,1
213,1,18,filler,filler_38,,/+/The gatekeeper refused to hand over the door key to the man./,Did the gatekeeper refuse to hand over the key?,Y,,0,24,to,7,2,4,12,1,4,12,640,1562930007507,Y,1964,1
213,1,18,filler,filler_38,,/+/The gatekeeper refused to hand over the door key to the man./,Did the gatekeeper refuse to hand over the key?,Y,,0,24,hand,8,2,5,12,1,5,12,416,1562930007923,Y,1964,1
213,1,18,filler,filler_38,,/+/The gatekeeper refused to hand over the door key to the man./,Did the gatekeeper refuse to hand over the key?,Y,,0,24,over,9,2,6,12,1,6,12,296,1562930008219,Y,1964,1
213,1,18,filler,filler_38,,/+/The gatekeeper refused to hand over the door key to the man./,Did the gatekeeper refuse to hand over the key?,Y,,0,24,the,10,2,7,12,1,7,12,358,1562930008579,Y,1964,1
213,1,18,filler,filler_38,,/+/The gatekeeper refused to hand over the door key to the man./,Did the gatekeeper refuse to hand over the key?,Y,,0,24,door,11,2,8,12,1,8,12,328,1562930008907,Y,1964,1
213,1,18,filler,filler_38,,/+/The gatekeeper refused to hand over the door key to the man./,Did the gatekeeper refuse to hand over the key?,Y,,0,24,key,12,2,9,12,1,9,12,472,1562930009379,Y,1964,1
213,1,18,filler,filler_38,,/+/The gatekeeper refused to hand over the door key to the man./,Did the gatekeeper refuse to hand over the key?,Y,,0,24,to,13,2,10,12,1,10,12,384,1562930009763,Y,1964,1
213,1,18,filler,filler_38,,/+/The gatekeeper refused to hand over the door key to the man./,Did the gatekeeper refuse to hand over the key?,Y,,0,24,the,14,2,11,12,1,11,12,351,1562930010114,Y,1964,1
213,1,18,filler,filler_38,,/+/The gatekeeper refused to hand over the door key to the man./,Did the gatekeeper refuse to hand over the key?,Y,,0,24,man.,15,2,12,12,1,12,12,265,1562930010379,Y,1964,1
213,1,19,filler,filler_37,,/+/The tiger was caught after it ate two persons within one week./,Was the tiger caught?,Y,,0,25,+,1,1,1,1,1,1,1,308,1562930013154,Y,1155,1
213,1,19,filler,filler_37,,/+/The tiger was caught after it ate two persons within one week./,Was the tiger caught?,Y,,0,25,The,2,2,1,12,1,1,12,425,1562930013579,Y,1155,1
213,1,19,filler,filler_37,,/+/The tiger was caught after it ate two persons within one week./,Was the tiger caught?,Y,,0,25,tiger,3,2,2,12,1,2,12,320,1562930013899,Y,1155,1
213,1,19,filler,filler_37,,/+/The tiger was caught after it ate two persons within one week./,Was the tiger caught?,Y,,0,25,was,4,2,3,12,1,3,12,311,1562930014210,Y,1155,1
213,1,19,filler,filler_37,,/+/The tiger was caught after it ate two persons within one week./,Was the tiger caught?,Y,,0,25,caught,5,2,4,12,1,4,12,265,1562930014475,Y,1155,1
213,1,19,filler,filler_37,,/+/The tiger was caught after it ate two persons within one week./,Was the tiger caught?,Y,,0,25,after,6,2,5,12,1,5,12,344,1562930014819,Y,1155,1
213,1,19,filler,filler_37,,/+/The tiger was caught after it ate two persons within one week./,Was the tiger caught?,Y,,0,25,it,7,2,6,12,1,6,12,351,1562930015170,Y,1155,1
213,1,19,filler,filler_37,,/+/The tiger was caught after it ate two persons within one week./,Was the tiger caught?,Y,,0,25,ate,8,2,7,12,1,7,12,497,1562930015667,Y,1155,1
213,1,19,filler,filler_37,,/+/The tiger was caught after it ate two persons within one week./,Was the tiger caught?,Y,,0,25,two,9,2,8,12,1,8,12,384,1562930016051,Y,1155,1
213,1,19,filler,filler_37,,/+/The tiger was caught after it ate two persons within one week./,Was the tiger caught?,Y,,0,25,persons,10,2,9,12,1,9,12,376,1562930016427,Y,1155,1
213,1,19,filler,filler_37,,/+/The tiger was caught after it ate two persons within one week./,Was the tiger caught?,Y,,0,25,within,11,2,10,12,1,10,12,408,1562930016835,Y,1155,1
213,1,19,filler,filler_37,,/+/The tiger was caught after it ate two persons within one week./,Was the tiger caught?,Y,,0,25,one,12,2,11,12,1,11,12,496,1562930017331,Y,1155,1
213,1,19,filler,filler_37,,/+/The tiger was caught after it ate two persons within one week./,Was the tiger caught?,Y,,0,25,week.,13,2,12,12,1,12,12,625,1562930017956,Y,1155,1
213,1,20,target,target_7,C,/+/The old man * who was * advised on the special diet * has * not responded./,Did the old man advise on the diet?,N,,0,26,+,1,1,1,1,1,1,1,303,1562930019916,N,3427,1
213,1,20,target,target_7,C,/+/The old man * who was * advised on the special diet * has * not responded./,Did the old man advise on the diet?,N,,0,26,The,2,2,1,13,1,1,3,336,1562930020252,N,3427,1
213,1,20,target,target_7,C,/+/The old man * who was * advised on the special diet * has * not responded./,Did the old man advise on the diet?,N,,0,26,old,3,2,2,13,1,2,3,216,1562930020468,N,3427,1
213,1,20,target,target_7,C,/+/The old man * who was * advised on the special diet * has * not responded./,Did the old man advise on the diet?,N,,0,26,man,4,2,3,13,1,3,3,240,1562930020708,N,3427,1
213,1,20,target,target_7,C,/+/The old man * who was * advised on the special diet * has * not responded./,Did the old man advise on the diet?,N,,0,26,who,5,2,4,13,2,1,2,304,1562930021012,N,3427,1
213,1,20,target,target_7,C,/+/The old man * who was * advised on the special diet * has * not responded./,Did the old man advise on the diet?,N,,0,26,was,6,2,5,13,2,2,2,263,1562930021275,N,3427,1
213,1,20,target,target_7,C,/+/The old man * who was * advised on the special diet * has * not responded./,Did the old man advise on the diet?,N,,0,26,advised,7,2,6,13,3,1,5,240,1562930021516,N,3427,1
213,1,20,target,target_7,C,/+/The old man * who was * advised on the special diet * has * not responded./,Did the old man advise on the diet?,N,,0,26,on,8,2,7,13,3,2,5,392,1562930021908,N,3427,1
213,1,20,target,target_7,C,/+/The old man * who was * advised on the special diet * has * not responded./,Did the old man advise on the diet?,N,,0,26,the,9,2,8,13,3,3,5,399,1562930022307,N,3427,1
213,1,20,target,target_7,C,/+/The old man * who was * advised on the special diet * has * not responded./,Did the old man advise on the diet?,N,,0,26,special,10,2,9,13,3,4,5,480,1562930022788,N,3427,1
213,1,20,target,target_7,C,/+/The old man * who was * advised on the special diet * has * not responded./,Did the old man advise on the diet?,N,,0,26,diet,11,2,10,13,3,5,5,984,1562930023772,N,3427,1
213,1,20,target,target_7,C,/+/The old man * who was * advised on the special diet * has * not responded./,Did the old man advise on the diet?,N,,0,26,has,12,2,11,13,4,1,1,360,1562930024132,N,3427,1
213,1,20,target,target_7,C,/+/The old man * who was * advised on the special diet * has * not responded./,Did the old man advise on the diet?,N,,0,26,not,13,2,12,13,5,1,2,231,1562930024363,N,3427,1
213,1,20,target,target_7,C,/+/The old man * who was * advised on the special diet * has * not responded./,Did the old man advise on the diet?,N,,0,26,responded.,14,2,13,13,5,2,2,305,1562930024668,N,3427,1
213,1,21,filler,filler_18,,/+/The actual price of the clothes was much higher than the man had expected./,Was the price of the clothes low?,N,,0,27,+,1,1,1,1,1,1,1,343,1562930028940,N,3027,1
213,1,21,filler,filler_18,,/+/The actual price of the clothes was much higher than the man had expected./,Was the price of the clothes low?,N,,0,27,The,2,2,1,14,1,1,14,288,1562930029228,N,3027,1
213,1,21,filler,filler_18,,/+/The actual price of the clothes was much higher than the man had expected./,Was the price of the clothes low?,N,,0,27,actual,3,2,2,14,1,2,14,296,1562930029524,N,3027,1
213,1,21,filler,filler_18,,/+/The actual price of the clothes was much higher than the man had expected./,Was the price of the clothes low?,N,,0,27,price,4,2,3,14,1,3,14,408,1562930029932,N,3027,1
213,1,21,filler,filler_18,,/+/The actual price of the clothes was much higher than the man had expected./,Was the price of the clothes low?,N,,0,27,of,5,2,4,14,1,4,14,592,1562930030524,N,3027,1
213,1,21,filler,filler_18,,/+/The actual price of the clothes was much higher than the man had expected./,Was the price of the clothes low?,N,,0,27,the,6,2,5,14,1,5,14,360,1562930030884,N,3027,1
213,1,21,filler,filler_18,,/+/The actual price of the clothes was much higher than the man had expected./,Was the price of the clothes low?,N,,0,27,clothes,7,2,6,14,1,6,14,320,1562930031204,N,3027,1
213,1,21,filler,filler_18,,/+/The actual price of the clothes was much higher than the man had expected./,Was the price of the clothes low?,N,,0,27,was,8,2,7,14,1,7,14,664,1562930031868,N,3027,1
213,1,21,filler,filler_18,,/+/The actual price of the clothes was much higher than the man had expected./,Was the price of the clothes low?,N,,0,27,much,9,2,8,14,1,8,14,400,1562930032268,N,3027,1
213,1,21,filler,filler_18,,/+/The actual price of the clothes was much higher than the man had expected./,Was the price of the clothes low?,N,,0,27,higher,10,2,9,14,1,9,14,648,1562930032916,N,3027,1
213,1,21,filler,filler_18,,/+/The actual price of the clothes was much higher than the man had expected./,Was the price of the clothes low?,N,,0,27,than,11,2,10,14,1,10,14,352,1562930033268,N,3027,1
213,1,21,filler,filler_18,,/+/The actual price of the clothes was much higher than the man had expected./,Was the price of the clothes low?,N,,0,27,the,12,2,11,14,1,11,14,352,1562930033620,N,3027,1
213,1,21,filler,filler_18,,/+/The actual price of the clothes was much higher than the man had expected./,Was the price of the clothes low?,N,,0,27,man,13,2,12,14,1,12,14,376,1562930033996,N,3027,1
213,1,21,filler,filler_18,,/+/The actual price of the clothes was much higher than the man had expected./,Was the price of the clothes low?,N,,0,27,had,14,2,13,14,1,13,14,376,1562930034372,N,3027,1
213,1,21,filler,filler_18,,/+/The actual price of the clothes was much higher than the man had expected./,Was the price of the clothes low?,N,,0,27,expected.,15,2,14,14,1,14,14,624,1562930034996,N,3027,1
213,1,22,target,target_9,G,/+/The famous scientist * awarded an academic prize * expressed * his excitement./,Did the scientist award a prize？,N,,0,28,+,1,1,1,1,1,1,1,328,1562930038852,Y,1611,0
213,1,22,target,target_9,G,/+/The famous scientist * awarded an academic prize * expressed * his excitement./,Did the scientist award a prize？,N,,0,28,The,2,2,1,10,1,1,3,248,1562930039100,Y,1611,0
213,1,22,target,target_9,G,/+/The famous scientist * awarded an academic prize * expressed * his excitement./,Did the scientist award a prize？,N,,0,28,famous,3,2,2,10,1,2,3,288,1562930039388,Y,1611,0
213,1,22,target,target_9,G,/+/The famous scientist * awarded an academic prize * expressed * his excitement./,Did the scientist award a prize？,N,,0,28,scientist,4,2,3,10,1,3,3,320,1562930039708,Y,1611,0
213,1,22,target,target_9,G,/+/The famous scientist * awarded an academic prize * expressed * his excitement./,Did the scientist award a prize？,N,,0,28,awarded,5,2,4,10,2,1,4,456,1562930040164,Y,1611,0
213,1,22,target,target_9,G,/+/The famous scientist * awarded an academic prize * expressed * his excitement./,Did the scientist award a prize？,N,,0,28,an,6,2,5,10,2,2,4,928,1562930041092,Y,1611,0
213,1,22,target,target_9,G,/+/The famous scientist * awarded an academic prize * expressed * his excitement./,Did the scientist award a prize？,N,,0,28,academic,7,2,6,10,2,3,4,576,1562930041668,Y,1611,0
213,1,22,target,target_9,G,/+/The famous scientist * awarded an academic prize * expressed * his excitement./,Did the scientist award a prize？,N,,0,28,prize,8,2,7,10,2,4,4,624,1562930042292,Y,1611,0
213,1,22,target,target_9,G,/+/The famous scientist * awarded an academic prize * expressed * his excitement./,Did the scientist award a prize？,N,,0,28,expressed,9,2,8,10,3,1,1,448,1562930042740,Y,1611,0
213,1,22,target,target_9,G,/+/The famous scientist * awarded an academic prize * expressed * his excitement./,Did the scientist award a prize？,N,,0,28,his,10,2,9,10,4,1,2,759,1562930043499,Y,1611,0
213,1,22,target,target_9,G,/+/The famous scientist * awarded an academic prize * expressed * his excitement./,Did the scientist award a prize？,N,,0,28,excitement.,11,2,10,10,4,2,2,505,1562930044004,Y,1611,0
213,1,23,filler,filler_2,,/+/The small town near Taipei was famous for its rich seafood resources./,Was the small town famous?,Y,,0,29,+,1,1,1,1,1,1,1,368,1562930046484,Y,2532,1
213,1,23,filler,filler_2,,/+/The small town near Taipei was famous for its rich seafood resources./,Was the small town famous?,Y,,0,29,The,2,2,1,12,1,1,12,368,1562930046852,Y,2532,1
213,1,23,filler,filler_2,,/+/The small town near Taipei was famous for its rich seafood resources./,Was the small town famous?,Y,,0,29,small,3,2,2,12,1,2,12,504,1562930047356,Y,2532,1
213,1,23,filler,filler_2,,/+/The small town near Taipei was famous for its rich seafood resources./,Was the small town famous?,Y,,0,29,town,4,2,3,12,1,3,12,343,1562930047699,Y,2532,1
213,1,23,filler,filler_2,,/+/The small town near Taipei was famous for its rich seafood resources./,Was the small town famous?,Y,,0,29,near,5,2,4,12,1,4,12,408,1562930048107,Y,2532,1
213,1,23,filler,filler_2,,/+/The small town near Taipei was famous for its rich seafood resources./,Was the small town famous?,Y,,0,29,Taipei,6,2,5,12,1,5,12,305,1562930048412,Y,2532,1
213,1,23,filler,filler_2,,/+/The small town near Taipei was famous for its rich seafood resources./,Was the small town famous?,Y,,0,29,was,7,2,6,12,1,6,12,327,1562930048739,Y,2532,1
213,1,23,filler,filler_2,,/+/The small town near Taipei was famous for its rich seafood resources./,Was the small town famous?,Y,,0,29,famous,8,2,7,12,1,7,12,313,1562930049052,Y,2532,1
213,1,23,filler,filler_2,,/+/The small town near Taipei was famous for its rich seafood resources./,Was the small town famous?,Y,,0,29,for,9,2,8,12,1,8,12,312,1562930049364,Y,2532,1
213,1,23,filler,filler_2,,/+/The small town near Taipei was famous for its rich seafood resources./,Was the small town famous?,Y,,0,29,its,10,2,9,12,1,9,12,367,1562930049731,Y,2532,1
213,1,23,filler,filler_2,,/+/The small town near Taipei was famous for its rich seafood resources./,Was the small town famous?,Y,,0,29,rich,11,2,10,12,1,10,12,249,1562930049980,Y,2532,1
213,1,23,filler,filler_2,,/+/The small town near Taipei was famous for its rich seafood resources./,Was the small town famous?,Y,,0,29,seafood,12,2,11,12,1,11,12,319,1562930050299,Y,2532,1
213,1,23,filler,filler_2,,/+/The small town near Taipei was famous for its rich seafood resources./,Was the small town famous?,Y,,0,29,resources.,13,2,12,12,1,12,12,632,1562930050931,Y,2532,1
213,1,24,filler,filler_30,,/+/The pop star contributed four million to the Hope project yesterday./,Did the pop star donate money yesterday?,Y,,0,30,+,1,1,1,1,1,1,1,375,1562930054339,Y,2427,1
213,1,24,filler,filler_30,,/+/The pop star contributed four million to the Hope project yesterday./,Did the pop star donate money yesterday?,Y,,0,30,The,2,2,1,11,1,1,11,391,1562930054731,Y,2427,1
213,1,24,filler,filler_30,,/+/The pop star contributed four million to the Hope project yesterday./,Did the pop star donate money yesterday?,Y,,0,30,pop,3,2,2,11,1,2,11,256,1562930054987,Y,2427,1
213,1,24,filler,filler_30,,/+/The pop star contributed four million to the Hope project yesterday./,Did the pop star donate money yesterday?,Y,,0,30,star,4,2,3,11,1,3,11,360,1562930055347,Y,2427,1
213,1,24,filler,filler_30,,/+/The pop star contributed four million to the Hope project yesterday./,Did the pop star donate money yesterday?,Y,,0,30,contributed,5,2,4,11,1,4,11,375,1562930055723,Y,2427,1
213,1,24,filler,filler_30,,/+/The pop star contributed four million to the Hope project yesterday./,Did the pop star donate money yesterday?,Y,,0,30,four,6,2,5,11,1,5,11,1056,1562930056779,Y,2427,1
213,1,24,filler,filler_30,,/+/The pop star contributed four million to the Hope project yesterday./,Did the pop star donate money yesterday?,Y,,0,30,million,7,2,6,11,1,6,11,352,1562930057131,Y,2427,1
213,1,24,filler,filler_30,,/+/The pop star contributed four million to the Hope project yesterday./,Did the pop star donate money yesterday?,Y,,0,30,to,8,2,7,11,1,7,11,392,1562930057523,Y,2427,1
213,1,24,filler,filler_30,,/+/The pop star contributed four million to the Hope project yesterday./,Did the pop star donate money yesterday?,Y,,0,30,the,9,2,8,11,1,8,11,304,1562930057827,Y,2427,1
213,1,24,filler,filler_30,,/+/The pop star contributed four million to the Hope project yesterday./,Did the pop star donate money yesterday?,Y,,0,30,Hope,10,2,9,11,1,9,11,232,1562930058059,Y,2427,1
213,1,24,filler,filler_30,,/+/The pop star contributed four million to the Hope project yesterday./,Did the pop star donate money yesterday?,Y,,0,30,project,11,2,10,11,1,10,11,256,1562930058315,Y,2427,1
213,1,24,filler,filler_30,,/+/The pop star contributed four million to the Hope project yesterday./,Did the pop star donate money yesterday?,Y,,0,30,yesterday.,12,2,11,11,1,11,11,808,1562930059123,Y,2427,1
213,1,25,target,target_10,C,/+/The skilled hunters * who were * stopped killing wild animals * ended up * in prison./,Did somebody stop the hunters from killing?,Y,,0,31,+,1,1,1,1,1,1,1,407,1562930062459,Y,3506,1
213,1,25,target,target_10,C,/+/The skilled hunters * who were * stopped killing wild animals * ended up * in prison./,Did somebody stop the hunters from killing?,Y,,0,31,The,2,2,1,13,1,1,3,432,1562930062891,Y,3506,1
213,1,25,target,target_10,C,/+/The skilled hunters * who were * stopped killing wild animals * ended up * in prison./,Did somebody stop the hunters from killing?,Y,,0,31,skilled,3,2,2,13,1,2,3,360,1562930063251,Y,3506,1
213,1,25,target,target_10,C,/+/The skilled hunters * who were * stopped killing wild animals * ended up * in prison./,Did somebody stop the hunters from killing?,Y,,0,31,hunters,4,2,3,13,1,3,3,384,1562930063635,Y,3506,1
213,1,25,target,target_10,C,/+/The skilled hunters * who were * stopped killing wild animals * ended up * in prison./,Did somebody stop the hunters from killing?,Y,,0,31,who,5,2,4,13,2,1,2,400,1562930064035,Y,3506,1
213,1,25,target,target_10,C,/+/The skilled hunters * who were * stopped killing wild animals * ended up * in prison./,Did somebody stop the hunters from killing?,Y,,0,31,were,6,2,5,13,2,2,2,440,1562930064475,Y,3506,1
213,1,25,target,target_10,C,/+/The skilled hunters * who were * stopped killing wild animals * ended up * in prison./,Did somebody stop the hunters from killing?,Y,,0,31,stopped,7,2,6,13,3,1,4,768,1562930065243,Y,3506,1
213,1,25,target,target_10,C,/+/The skilled hunters * who were * stopped killing wild animals * ended up * in prison./,Did somebody stop the hunters from killing?,Y,,0,31,killing,8,2,7,13,3,2,4,392,1562930065635,Y,3506,1
213,1,25,target,target_10,C,/+/The skilled hunters * who were * stopped killing wild animals * ended up * in prison./,Did somebody stop the hunters from killing?,Y,,0,31,wild,9,2,8,13,3,3,4,327,1562930065962,Y,3506,1
213,1,25,target,target_10,C,/+/The skilled hunters * who were * stopped killing wild animals * ended up * in prison./,Did somebody stop the hunters from killing?,Y,,0,31,animals,10,2,9,13,3,4,4,432,1562930066395,Y,3506,1
213,1,25,target,target_10,C,/+/The skilled hunters * who were * stopped killing wild animals * ended up * in prison./,Did somebody stop the hunters from killing?,Y,,0,31,ended,11,2,10,13,4,1,2,296,1562930066691,Y,3506,1
213,1,25,target,target_10,C,/+/The skilled hunters * who were * stopped killing wild animals * ended up * in prison./,Did somebody stop the hunters from killing?,Y,,0,31,up,12,2,11,13,4,2,2,360,1562930067051,Y,3506,1
213,1,25,target,target_10,C,/+/The skilled hunters * who were * stopped killing wild animals * ended up * in prison./,Did somebody stop the hunters from killing?,Y,,0,31,in,13,2,12,13,5,1,2,352,1562930067403,Y,3506,1
213,1,25,target,target_10,C,/+/The skilled hunters * who were * stopped killing wild animals * ended up * in prison./,Did somebody stop the hunters from killing?,Y,,0,31,prison.,14,2,13,13,5,2,2,288,1562930067691,Y,3506,1
213,1,26,filler,filler_21,,/+/The employees were willing to work in a nice environment./,Did the employees want to work in a poor environment?,N,,0,32,+,1,1,1,1,1,1,1,663,1562930072363,N,2870,1
213,1,26,filler,filler_21,,/+/The employees were willing to work in a nice environment./,Did the employees want to work in a poor environment?,N,,0,32,The,2,2,1,10,1,1,10,1048,1562930073411,N,2870,1
213,1,26,filler,filler_21,,/+/The employees were willing to work in a nice environment./,Did the employees want to work in a poor environment?,N,,0,32,employees,3,2,2,10,1,2,10,583,1562930073994,N,2870,1
213,1,26,filler,filler_21,,/+/The employees were willing to work in a nice environment./,Did the employees want to work in a poor environment?,N,,0,32,were,4,2,3,10,1,3,10,721,1562930074715,N,2870,1
213,1,26,filler,filler_21,,/+/The employees were willing to work in a nice environment./,Did the employees want to work in a poor environment?,N,,0,32,willing,5,2,4,10,1,4,10,383,1562930075098,N,2870,1
213,1,26,filler,filler_21,,/+/The employees were willing to work in a nice environment./,Did the employees want to work in a poor environment?,N,,0,32,to,6,2,5,10,1,5,10,417,1562930075515,N,2870,1
213,1,26,filler,filler_21,,/+/The employees were willing to work in a nice environment./,Did the employees want to work in a poor environment?,N,,0,32,work,7,2,6,10,1,6,10,304,1562930075819,N,2870,1
213,1,26,filler,filler_21,,/+/The employees were willing to work in a nice environment./,Did the employees want to work in a poor environment?,N,,0,32,in,8,2,7,10,1,7,10,320,1562930076139,N,2870,1
213,1,26,filler,filler_21,,/+/The employees were willing to work in a nice environment./,Did the employees want to work in a poor environment?,N,,0,32,a,9,2,8,10,1,8,10,336,1562930076475,N,2870,1
213,1,26,filler,filler_21,,/+/The employees were willing to work in a nice environment./,Did the employees want to work in a poor environment?,N,,0,32,nice,10,2,9,10,1,9,10,288,1562930076763,N,2870,1
213,1,26,filler,filler_21,,/+/The employees were willing to work in a nice environment./,Did the employees want to work in a poor environment?,N,,0,32,environment.,11,2,10,10,1,10,10,359,1562930077122,N,2870,1
213,1,27,filler,filler_20,,/+/The woman's pretty dress was burned by those naughty boys./,Was the dress burned by the boys?,Y,,0,33,+,1,1,1,1,1,1,1,279,1562930080773,Y,2004,1
213,1,27,filler,filler_20,,/+/The woman's pretty dress was burned by those naughty boys./,Was the dress burned by the boys?,Y,,0,33,The,2,2,1,10,1,1,10,303,1562930081076,Y,2004,1
213,1,27,filler,filler_20,,/+/The woman's pretty dress was burned by those naughty boys./,Was the dress burned by the boys?,Y,,0,33,woman's,3,2,2,10,1,2,10,465,1562930081541,Y,2004,1
213,1,27,filler,filler_20,,/+/The woman's pretty dress was burned by those naughty boys./,Was the dress burned by the boys?,Y,,0,33,pretty,4,2,3,10,1,3,10,1696,1562930083237,Y,2004,1
213,1,27,filler,filler_20,,/+/The woman's pretty dress was burned by those naughty boys./,Was the dress burned by the boys?,Y,,0,33,dress,5,2,4,10,1,4,10,472,1562930083709,Y,2004,1
213,1,27,filler,filler_20,,/+/The woman's pretty dress was burned by those naughty boys./,Was the dress burned by the boys?,Y,,0,33,was,6,2,5,10,1,5,10,447,1562930084156,Y,2004,1
213,1,27,filler,filler_20,,/+/The woman's pretty dress was burned by those naughty boys./,Was the dress burned by the boys?,Y,,0,33,burned,7,2,6,10,1,6,10,601,1562930084757,Y,2004,1
213,1,27,filler,filler_20,,/+/The woman's pretty dress was burned by those naughty boys./,Was the dress burned by the boys?,Y,,0,33,by,8,2,7,10,1,7,10,351,1562930085108,Y,2004,1
213,1,27,filler,filler_20,,/+/The woman's pretty dress was burned by those naughty boys./,Was the dress burned by the boys?,Y,,0,33,those,9,2,8,10,1,8,10,337,1562930085445,Y,2004,1
213,1,27,filler,filler_20,,/+/The woman's pretty dress was burned by those naughty boys./,Was the dress burned by the boys?,Y,,0,33,naughty,10,2,9,10,1,9,10,400,1562930085845,Y,2004,1
213,1,27,filler,filler_20,,/+/The woman's pretty dress was burned by those naughty boys./,Was the dress burned by the boys?,Y,,0,33,boys.,11,2,10,10,1,10,10,391,1562930086236,Y,2004,1
213,1,28,filler,filler_36,,/+/The biology expert argued that wild animals should be protected now./,Did the biology expert argue to pretect wild animals?,Y,,0,34,+,1,1,1,1,1,1,1,351,1562930089093,Y,5819,1
213,1,28,filler,filler_36,,/+/The biology expert argued that wild animals should be protected now./,Did the biology expert argue to pretect wild animals?,Y,,0,34,The,2,2,1,11,1,1,11,320,1562930089413,Y,5819,1
213,1,28,filler,filler_36,,/+/The biology expert argued that wild animals should be protected now./,Did the biology expert argue to pretect wild animals?,Y,,0,34,biology,3,2,2,11,1,2,11,448,1562930089861,Y,5819,1
213,1,28,filler,filler_36,,/+/The biology expert argued that wild animals should be protected now./,Did the biology expert argue to pretect wild animals?,Y,,0,34,expert,4,2,3,11,1,3,11,1104,1562930090965,Y,5819,1
213,1,28,filler,filler_36,,/+/The biology expert argued that wild animals should be protected now./,Did the biology expert argue to pretect wild animals?,Y,,0,34,argued,5,2,4,11,1,4,11,704,1562930091669,Y,5819,1
213,1,28,filler,filler_36,,/+/The biology expert argued that wild animals should be protected now./,Did the biology expert argue to pretect wild animals?,Y,,0,34,that,6,2,5,11,1,5,11,488,1562930092157,Y,5819,1
213,1,28,filler,filler_36,,/+/The biology expert argued that wild animals should be protected now./,Did the biology expert argue to pretect wild animals?,Y,,0,34,wild,7,2,6,11,1,6,11,967,1562930093124,Y,5819,1
213,1,28,filler,filler_36,,/+/The biology expert argued that wild animals should be protected now./,Did the biology expert argue to pretect wild animals?,Y,,0,34,animals,8,2,7,11,1,7,11,439,1562930093564,Y,5819,1
213,1,28,filler,filler_36,,/+/The biology expert argued that wild animals should be protected now./,Did the biology expert argue to pretect wild animals?,Y,,0,34,should,9,2,8,11,1,8,11,719,1562930094284,Y,5819,1
213,1,28,filler,filler_36,,/+/The biology expert argued that wild animals should be protected now./,Did the biology expert argue to pretect wild animals?,Y,,0,34,be,10,2,9,11,1,9,11,624,1562930094908,Y,5819,1
213,1,28,filler,filler_36,,/+/The biology expert argued that wild animals should be protected now./,Did the biology expert argue to pretect wild animals?,Y,,0,34,protected,11,2,10,11,1,10,11,631,1562930095540,Y,5819,1
213,1,28,filler,filler_36,,/+/The biology expert argued that wild animals should be protected now./,Did the biology expert argue to pretect wild animals?,Y,,0,34,now.,12,2,11,11,1,11,11,567,1562930096108,Y,5819,1
213,1,29,target,target_18,C,/+/The young repairman * who was * paid for the bill * said * thanks to the hostress./,Did the repairman pay for the bill?,N,,0,35,+,1,1,1,1,1,1,1,376,1562930102804,Y,3484,0
213,1,29,target,target_18,C,/+/The young repairman * who was * paid for the bill * said * thanks to the hostress./,Did the repairman pay for the bill?,N,,0,35,The,2,2,1,14,1,1,3,336,1562930103140,Y,3484,0
213,1,29,target,target_18,C,/+/The young repairman * who was * paid for the bill * said * thanks to the hostress./,Did the repairman pay for the bill?,N,,0,35,young,3,2,2,14,1,2,3,528,1562930103668,Y,3484,0
213,1,29,target,target_18,C,/+/The young repairman * who was * paid for the bill * said * thanks to the hostress./,Did the repairman pay for the bill?,N,,0,35,repairman,4,2,3,14,1,3,3,408,1562930104076,Y,3484,0
213,1,29,target,target_18,C,/+/The young repairman * who was * paid for the bill * said * thanks to the hostress./,Did the repairman pay for the bill?,N,,0,35,who,5,2,4,14,2,1,2,688,1562930104764,Y,3484,0
213,1,29,target,target_18,C,/+/The young repairman * who was * paid for the bill * said * thanks to the hostress./,Did the repairman pay for the bill?,N,,0,35,was,6,2,5,14,2,2,2,384,1562930105148,Y,3484,0
213,1,29,target,target_18,C,/+/The young repairman * who was * paid for the bill * said * thanks to the hostress./,Did the repairman pay for the bill?,N,,0,35,paid,7,2,6,14,3,1,4,376,1562930105524,Y,3484,0
213,1,29,target,target_18,C,/+/The young repairman * who was * paid for the bill * said * thanks to the hostress./,Did the repairman pay for the bill?,N,,0,35,for,8,2,7,14,3,2,4,352,1562930105876,Y,3484,0
213,1,29,target,target_18,C,/+/The young repairman * who was * paid for the bill * said * thanks to the hostress./,Did the repairman pay for the bill?,N,,0,35,the,9,2,8,14,3,3,4,320,1562930106196,Y,3484,0
213,1,29,target,target_18,C,/+/The young repairman * who was * paid for the bill * said * thanks to the hostress./,Did the repairman pay for the bill?,N,,0,35,bill,10,2,9,14,3,4,4,248,1562930106444,Y,3484,0
213,1,29,target,target_18,C,/+/The young repairman * who was * paid for the bill * said * thanks to the hostress./,Did the repairman pay for the bill?,N,,0,35,said,11,2,10,14,4,1,1,368,1562930106812,Y,3484,0
213,1,29,target,target_18,C,/+/The young repairman * who was * paid for the bill * said * thanks to the hostress./,Did the repairman pay for the bill?,N,,0,35,thanks,12,2,11,14,5,1,4,264,1562930107076,Y,3484,0
213,1,29,target,target_18,C,/+/The young repairman * who was * paid for the bill * said * thanks to the hostress./,Did the repairman pay for the bill?,N,,0,35,to,13,2,12,14,5,2,4,480,1562930107556,Y,3484,0
213,1,29,target,target_18,C,/+/The young repairman * who was * paid for the bill * said * thanks to the hostress./,Did the repairman pay for the bill?,N,,0,35,the,14,2,13,14,5,3,4,368,1562930107924,Y,3484,0
213,1,29,target,target_18,C,/+/The young repairman * who was * paid for the bill * said * thanks to the hostress./,Did the repairman pay for the bill?,N,,0,35,hostress.,15,2,14,14,5,4,4,600,1562930108524,Y,3484,0
213,1,30,filler,filler_33,,/+/The old fireman did not believe that his wife was capable of making decisions./,Did the fireman believe his wife in making decisions?,N,,0,36,+,1,1,1,1,1,1,1,360,1562930112868,N,1683,1
