dat_Subject,list,display_order,type,id,con,fab_stimulus,fab_question,fab_key,fab_instruction,fab_feedback,dat_Trial,dat_Window,dat_WindowSequence,dat_LoopNumber,dat_LoopPosition,dat_LoopSum,dat_AreaNumber,dat_AreaPosition,dat_AreaSum,dat_ReactionTime,dat_Time,dat_Ans,dat_AnsReactionTime,dat_Accuracy
220,2,p1,practice,practice_1,,/+/The patient listened to the doctor's advice after he felt hopeless./,Did the patient follow the doctor?,Y,ins.jpg,1,1,+,1,1,1,1,1,1,1,3679,1563002819302,N,2515,0
220,2,p1,practice,practice_1,,/+/The patient listened to the doctor's advice after he felt hopeless./,Did the patient follow the doctor?,Y,ins.jpg,1,1,The,2,2,1,11,1,1,11,704,1563002820006,N,2515,0
220,2,p1,practice,practice_1,,/+/The patient listened to the doctor's advice after he felt hopeless./,Did the patient follow the doctor?,Y,ins.jpg,1,1,patient,3,2,2,11,1,2,11,1608,1563002821614,N,2515,0
220,2,p1,practice,practice_1,,/+/The patient listened to the doctor's advice after he felt hopeless./,Did the patient follow the doctor?,Y,ins.jpg,1,1,listened,4,2,3,11,1,3,11,1391,1563002823005,N,2515,0
220,2,p1,practice,practice_1,,/+/The patient listened to the doctor's advice after he felt hopeless./,Did the patient follow the doctor?,Y,ins.jpg,1,1,to,5,2,4,11,1,4,11,817,1563002823822,N,2515,0
220,2,p1,practice,practice_1,,/+/The patient listened to the doctor's advice after he felt hopeless./,Did the patient follow the doctor?,Y,ins.jpg,1,1,the,6,2,5,11,1,5,11,631,1563002824453,N,2515,0
220,2,p1,practice,practice_1,,/+/The patient listened to the doctor's advice after he felt hopeless./,Did the patient follow the doctor?,Y,ins.jpg,1,1,doctor's,7,2,6,11,1,6,11,695,1563002825149,N,2515,0
220,2,p1,practice,practice_1,,/+/The patient listened to the doctor's advice after he felt hopeless./,Did the patient follow the doctor?,Y,ins.jpg,1,1,advice,8,2,7,11,1,7,11,687,1563002825837,N,2515,0
220,2,p1,practice,practice_1,,/+/The patient listened to the doctor's advice after he felt hopeless./,Did the patient follow the doctor?,Y,ins.jpg,1,1,after,9,2,8,11,1,8,11,800,1563002826637,N,2515,0
220,2,p1,practice,practice_1,,/+/The patient listened to the doctor's advice after he felt hopeless./,Did the patient follow the doctor?,Y,ins.jpg,1,1,he,10,2,9,11,1,9,11,1255,1563002827893,N,2515,0
220,2,p1,practice,practice_1,,/+/The patient listened to the doctor's advice after he felt hopeless./,Did the patient follow the doctor?,Y,ins.jpg,1,1,felt,11,2,10,11,1,10,11,768,1563002828661,N,2515,0
220,2,p1,practice,practice_1,,/+/The patient listened to the doctor's advice after he felt hopeless./,Did the patient follow the doctor?,Y,ins.jpg,1,1,hopeless.,12,2,11,11,1,11,11,1320,1563002829981,N,2515,0
220,2,p2,practice,practice_2,,/+/The visitors knew little about how the painting was created./,Did the visitors know how the painting was created?,N,,1,2,+,1,1,1,1,1,1,1,1998,1563002858302,N,2418,1
220,2,p2,practice,practice_2,,/+/The visitors knew little about how the painting was created./,Did the visitors know how the painting was created?,N,,1,2,The,2,2,1,10,1,1,10,695,1563002858997,N,2418,1
220,2,p2,practice,practice_2,,/+/The visitors knew little about how the painting was created./,Did the visitors know how the painting was created?,N,,1,2,visitors,3,2,2,10,1,2,10,2136,1563002861133,N,2418,1
220,2,p2,practice,practice_2,,/+/The visitors knew little about how the painting was created./,Did the visitors know how the painting was created?,N,,1,2,knew,4,2,3,10,1,3,10,792,1563002861925,N,2418,1
220,2,p2,practice,practice_2,,/+/The visitors knew little about how the painting was created./,Did the visitors know how the painting was created?,N,,1,2,little,5,2,4,10,1,4,10,720,1563002862645,N,2418,1
220,2,p2,practice,practice_2,,/+/The visitors knew little about how the painting was created./,Did the visitors know how the painting was created?,N,,1,2,about,6,2,5,10,1,5,10,488,1563002863133,N,2418,1
220,2,p2,practice,practice_2,,/+/The visitors knew little about how the painting was created./,Did the visitors know how the painting was created?,N,,1,2,how,7,2,6,10,1,6,10,1024,1563002864157,N,2418,1
220,2,p2,practice,practice_2,,/+/The visitors knew little about how the painting was created./,Did the visitors know how the painting was created?,N,,1,2,the,8,2,7,10,1,7,10,592,1563002864749,N,2418,1
220,2,p2,practice,practice_2,,/+/The visitors knew little about how the painting was created./,Did the visitors know how the painting was created?,N,,1,2,painting,9,2,8,10,1,8,10,1089,1563002865838,N,2418,1
220,2,p2,practice,practice_2,,/+/The visitors knew little about how the painting was created./,Did the visitors know how the painting was created?,N,,1,2,was,10,2,9,10,1,9,10,1392,1563002867230,N,2418,1
220,2,p2,practice,practice_2,,/+/The visitors knew little about how the painting was created./,Did the visitors know how the painting was created?,N,,1,2,created.,11,2,10,10,1,10,10,2536,1563002869766,N,2418,1
220,2,p3,practice,practice_3,,/+/The old lady lived further away from the city center./,Did the old lady live in the city center?,N,,1,3,+,1,1,1,1,1,1,1,2544,1563002875230,N,2884,1
220,2,p3,practice,practice_3,,/+/The old lady lived further away from the city center./,Did the old lady live in the city center?,N,,1,3,The,2,2,1,10,1,1,10,929,1563002876159,N,2884,1
220,2,p3,practice,practice_3,,/+/The old lady lived further away from the city center./,Did the old lady live in the city center?,N,,1,3,old,3,2,2,10,1,2,10,799,1563002876958,N,2884,1
220,2,p3,practice,practice_3,,/+/The old lady lived further away from the city center./,Did the old lady live in the city center?,N,,1,3,lady,4,2,3,10,1,3,10,1280,1563002878239,N,2884,1
220,2,p3,practice,practice_3,,/+/The old lady lived further away from the city center./,Did the old lady live in the city center?,N,,1,3,lived,5,2,4,10,1,4,10,863,1563002879102,N,2884,1
220,2,p3,practice,practice_3,,/+/The old lady lived further away from the city center./,Did the old lady live in the city center?,N,,1,3,further,6,2,5,10,1,5,10,1007,1563002880110,N,2884,1
220,2,p3,practice,practice_3,,/+/The old lady lived further away from the city center./,Did the old lady live in the city center?,N,,1,3,away,7,2,6,10,1,6,10,760,1563002880870,N,2884,1
220,2,p3,practice,practice_3,,/+/The old lady lived further away from the city center./,Did the old lady live in the city center?,N,,1,3,from,8,2,7,10,1,7,10,616,1563002881486,N,2884,1
220,2,p3,practice,practice_3,,/+/The old lady lived further away from the city center./,Did the old lady live in the city center?,N,,1,3,the,9,2,8,10,1,8,10,984,1563002882470,N,2884,1
220,2,p3,practice,practice_3,,/+/The old lady lived further away from the city center./,Did the old lady live in the city center?,N,,1,3,city,10,2,9,10,1,9,10,889,1563002883359,N,2884,1
220,2,p3,practice,practice_3,,/+/The old lady lived further away from the city center./,Did the old lady live in the city center?,N,,1,3,center.,11,2,10,10,1,10,10,864,1563002884223,N,2884,1
220,2,p4,practice,practice_4,,/+/The maid looked at the hostess with a nervous smile./,Did the maid feel nervous? ,Y,,1,4,+,1,1,1,1,1,1,1,2175,1563002889783,Y,3212,1
220,2,p4,practice,practice_4,,/+/The maid looked at the hostess with a nervous smile./,Did the maid feel nervous? ,Y,,1,4,The,2,2,1,10,1,1,10,776,1563002890559,Y,3212,1
220,2,p4,practice,practice_4,,/+/The maid looked at the hostess with a nervous smile./,Did the maid feel nervous? ,Y,,1,4,maid,3,2,2,10,1,2,10,1472,1563002892031,Y,3212,1
220,2,p4,practice,practice_4,,/+/The maid looked at the hostess with a nervous smile./,Did the maid feel nervous? ,Y,,1,4,looked,4,2,3,10,1,3,10,1008,1563002893039,Y,3212,1
220,2,p4,practice,practice_4,,/+/The maid looked at the hostess with a nervous smile./,Did the maid feel nervous? ,Y,,1,4,at,5,2,4,10,1,4,10,536,1563002893575,Y,3212,1
220,2,p4,practice,practice_4,,/+/The maid looked at the hostess with a nervous smile./,Did the maid feel nervous? ,Y,,1,4,the,6,2,5,10,1,5,10,735,1563002894310,Y,3212,1
220,2,p4,practice,practice_4,,/+/The maid looked at the hostess with a nervous smile./,Did the maid feel nervous? ,Y,,1,4,hostess,7,2,6,10,1,6,10,2935,1563002897246,Y,3212,1
220,2,p4,practice,practice_4,,/+/The maid looked at the hostess with a nervous smile./,Did the maid feel nervous? ,Y,,1,4,with,8,2,7,10,1,7,10,1528,1563002898774,Y,3212,1
220,2,p4,practice,practice_4,,/+/The maid looked at the hostess with a nervous smile./,Did the maid feel nervous? ,Y,,1,4,a,9,2,8,10,1,8,10,720,1563002899494,Y,3212,1
220,2,p4,practice,practice_4,,/+/The maid looked at the hostess with a nervous smile./,Did the maid feel nervous? ,Y,,1,4,nervous,10,2,9,10,1,9,10,816,1563002900310,Y,3212,1
220,2,p4,practice,practice_4,,/+/The maid looked at the hostess with a nervous smile./,Did the maid feel nervous? ,Y,,1,4,smile.,11,2,10,10,1,10,10,769,1563002901079,Y,3212,1
220,2,p5,practice,practice_5,,/+/The young lady * sent a red rose * became * really embarrassed./,Did the lady send a red rose?,N,,1,5,+,1,1,1,1,1,1,1,2591,1563002907383,Y,1956,0
220,2,p5,practice,practice_5,,/+/The young lady * sent a red rose * became * really embarrassed./,Did the lady send a red rose?,N,,1,5,The,2,2,1,10,1,1,3,1088,1563002908471,Y,1956,0
220,2,p5,practice,practice_5,,/+/The young lady * sent a red rose * became * really embarrassed./,Did the lady send a red rose?,N,,1,5,young,3,2,2,10,1,2,3,1416,1563002909887,Y,1956,0
220,2,p5,practice,practice_5,,/+/The young lady * sent a red rose * became * really embarrassed./,Did the lady send a red rose?,N,,1,5,lady,4,2,3,10,1,3,3,1608,1563002911495,Y,1956,0
220,2,p5,practice,practice_5,,/+/The young lady * sent a red rose * became * really embarrassed./,Did the lady send a red rose?,N,,1,5,sent,5,2,4,10,2,1,4,1647,1563002913142,Y,1956,0
220,2,p5,practice,practice_5,,/+/The young lady * sent a red rose * became * really embarrassed./,Did the lady send a red rose?,N,,1,5,a,6,2,5,10,2,2,4,688,1563002913830,Y,1956,0
220,2,p5,practice,practice_5,,/+/The young lady * sent a red rose * became * really embarrassed./,Did the lady send a red rose?,N,,1,5,red,7,2,6,10,2,3,4,631,1563002914462,Y,1956,0
220,2,p5,practice,practice_5,,/+/The young lady * sent a red rose * became * really embarrassed./,Did the lady send a red rose?,N,,1,5,rose,8,2,7,10,2,4,4,672,1563002915134,Y,1956,0
220,2,p5,practice,practice_5,,/+/The young lady * sent a red rose * became * really embarrassed./,Did the lady send a red rose?,N,,1,5,became,9,2,8,10,3,1,1,1112,1563002916246,Y,1956,0
220,2,p5,practice,practice_5,,/+/The young lady * sent a red rose * became * really embarrassed./,Did the lady send a red rose?,N,,1,5,really,10,2,9,10,4,1,2,824,1563002917070,Y,1956,0
220,2,p5,practice,practice_5,,/+/The young lady * sent a red rose * became * really embarrassed./,Did the lady send a red rose?,N,,1,5,embarrassed.,11,2,10,10,4,2,2,2657,1563002919727,Y,1956,0
220,2,p6,practice,practice_6,,/+/The busy workers * who were * offered a delicious pizza * felt * not so hungry./,Did someone offer the workers a pizza?,Y,,1,6,+,1,1,1,1,1,1,1,2112,1563002995462,Y,3228,1
220,2,p6,practice,practice_6,,/+/The busy workers * who were * offered a delicious pizza * felt * not so hungry./,Did someone offer the workers a pizza?,Y,,1,6,The,2,2,1,13,1,1,3,1136,1563002996598,Y,3228,1
220,2,p6,practice,practice_6,,/+/The busy workers * who were * offered a delicious pizza * felt * not so hungry./,Did someone offer the workers a pizza?,Y,,1,6,busy,3,2,2,13,1,2,3,1791,1563002998389,Y,3228,1
220,2,p6,practice,practice_6,,/+/The busy workers * who were * offered a delicious pizza * felt * not so hungry./,Did someone offer the workers a pizza?,Y,,1,6,workers,4,2,3,13,1,3,3,1401,1563002999790,Y,3228,1
220,2,p6,practice,practice_6,,/+/The busy workers * who were * offered a delicious pizza * felt * not so hungry./,Did someone offer the workers a pizza?,Y,,1,6,who,5,2,4,13,2,1,2,728,1563003000518,Y,3228,1
220,2,p6,practice,practice_6,,/+/The busy workers * who were * offered a delicious pizza * felt * not so hungry./,Did someone offer the workers a pizza?,Y,,1,6,were,6,2,5,13,2,2,2,991,1563003001509,Y,3228,1
220,2,p6,practice,practice_6,,/+/The busy workers * who were * offered a delicious pizza * felt * not so hungry./,Did someone offer the workers a pizza?,Y,,1,6,offered,7,2,6,13,3,1,4,800,1563003002309,Y,3228,1
220,2,p6,practice,practice_6,,/+/The busy workers * who were * offered a delicious pizza * felt * not so hungry./,Did someone offer the workers a pizza?,Y,,1,6,a,8,2,7,13,3,2,4,575,1563003002885,Y,3228,1
220,2,p6,practice,practice_6,,/+/The busy workers * who were * offered a delicious pizza * felt * not so hungry./,Did someone offer the workers a pizza?,Y,,1,6,delicious,9,2,8,13,3,3,4,959,1563003003845,Y,3228,1
220,2,p6,practice,practice_6,,/+/The busy workers * who were * offered a delicious pizza * felt * not so hungry./,Did someone offer the workers a pizza?,Y,,1,6,pizza,10,2,9,13,3,4,4,592,1563003004437,Y,3228,1
220,2,p6,practice,practice_6,,/+/The busy workers * who were * offered a delicious pizza * felt * not so hungry./,Did someone offer the workers a pizza?,Y,,1,6,felt,11,2,10,13,4,1,1,833,1563003005270,Y,3228,1
220,2,p6,practice,practice_6,,/+/The busy workers * who were * offered a delicious pizza * felt * not so hungry./,Did someone offer the workers a pizza?,Y,,1,6,not,12,2,11,13,5,1,3,992,1563003006262,Y,3228,1
220,2,p6,practice,practice_6,,/+/The busy workers * who were * offered a delicious pizza * felt * not so hungry./,Did someone offer the workers a pizza?,Y,,1,6,so,13,2,12,13,5,2,3,1240,1563003007502,Y,3228,1
220,2,p6,practice,practice_6,,/+/The busy workers * who were * offered a delicious pizza * felt * not so hungry./,Did someone offer the workers a pizza?,Y,,1,6,hungry.,14,2,13,13,5,3,3,1224,1563003008726,Y,3228,1
220,2,1,filler,filler_6,,/+/The girl sang very well through learning experiences from her tutor./,Did the girl's tutor do a lot of help? ,Y,练习结束，现在开始正式实验。,0,7,+,1,1,1,1,1,1,1,3047,1563003034166,Y,3060,1
220,2,1,filler,filler_6,,/+/The girl sang very well through learning experiences from her tutor./,Did the girl's tutor do a lot of help? ,Y,练习结束，现在开始正式实验。,0,7,The,2,2,1,11,1,1,11,1032,1563003035198,Y,3060,1
220,2,1,filler,filler_6,,/+/The girl sang very well through learning experiences from her tutor./,Did the girl's tutor do a lot of help? ,Y,练习结束，现在开始正式实验。,0,7,girl,3,2,2,11,1,2,11,1096,1563003036294,Y,3060,1
220,2,1,filler,filler_6,,/+/The girl sang very well through learning experiences from her tutor./,Did the girl's tutor do a lot of help? ,Y,练习结束，现在开始正式实验。,0,7,sang,4,2,3,11,1,3,11,1087,1563003037381,Y,3060,1
220,2,1,filler,filler_6,,/+/The girl sang very well through learning experiences from her tutor./,Did the girl's tutor do a lot of help? ,Y,练习结束，现在开始正式实验。,0,7,very,5,2,4,11,1,4,11,911,1563003038293,Y,3060,1
220,2,1,filler,filler_6,,/+/The girl sang very well through learning experiences from her tutor./,Did the girl's tutor do a lot of help? ,Y,练习结束，现在开始正式实验。,0,7,well,6,2,5,11,1,5,11,607,1563003038901,Y,3060,1
220,2,1,filler,filler_6,,/+/The girl sang very well through learning experiences from her tutor./,Did the girl's tutor do a lot of help? ,Y,练习结束，现在开始正式实验。,0,7,through,7,2,6,11,1,6,11,960,1563003039861,Y,3060,1
220,2,1,filler,filler_6,,/+/The girl sang very well through learning experiences from her tutor./,Did the girl's tutor do a lot of help? ,Y,练习结束，现在开始正式实验。,0,7,learning,8,2,7,11,1,7,11,937,1563003040798,Y,3060,1
220,2,1,filler,filler_6,,/+/The girl sang very well through learning experiences from her tutor./,Did the girl's tutor do a lot of help? ,Y,练习结束，现在开始正式实验。,0,7,experiences,9,2,8,11,1,8,11,1784,1563003042582,Y,3060,1
220,2,1,filler,filler_6,,/+/The girl sang very well through learning experiences from her tutor./,Did the girl's tutor do a lot of help? ,Y,练习结束，现在开始正式实验。,0,7,from,10,2,9,11,1,9,11,656,1563003043238,Y,3060,1
220,2,1,filler,filler_6,,/+/The girl sang very well through learning experiences from her tutor./,Did the girl's tutor do a lot of help? ,Y,练习结束，现在开始正式实验。,0,7,her,11,2,10,11,1,10,11,472,1563003043710,Y,3060,1
220,2,1,filler,filler_6,,/+/The girl sang very well through learning experiences from her tutor./,Did the girl's tutor do a lot of help? ,Y,练习结束，现在开始正式实验。,0,7,tutor.,12,2,11,11,1,11,11,944,1563003044654,Y,3060,1
220,2,2,filler,filler_7,,/+/Some important papers which lay in the office were stolen last night./,Were the papers still safe?,N,,0,8,+,1,1,1,1,1,1,1,2687,1563003050902,N,1978,1
220,2,2,filler,filler_7,,/+/Some important papers which lay in the office were stolen last night./,Were the papers still safe?,N,,0,8,Some,2,2,1,12,1,1,12,544,1563003051446,N,1978,1
220,2,2,filler,filler_7,,/+/Some important papers which lay in the office were stolen last night./,Were the papers still safe?,N,,0,8,important,3,2,2,12,1,2,12,944,1563003052390,N,1978,1
220,2,2,filler,filler_7,,/+/Some important papers which lay in the office were stolen last night./,Were the papers still safe?,N,,0,8,papers,4,2,3,12,1,3,12,711,1563003053101,N,1978,1
220,2,2,filler,filler_7,,/+/Some important papers which lay in the office were stolen last night./,Were the papers still safe?,N,,0,8,which,5,2,4,12,1,4,12,665,1563003053767,N,1978,1
220,2,2,filler,filler_7,,/+/Some important papers which lay in the office were stolen last night./,Were the papers still safe?,N,,0,8,lay,6,2,5,12,1,5,12,1143,1563003054910,N,1978,1
220,2,2,filler,filler_7,,/+/Some important papers which lay in the office were stolen last night./,Were the papers still safe?,N,,0,8,in,7,2,6,12,1,6,12,519,1563003055430,N,1978,1
220,2,2,filler,filler_7,,/+/Some important papers which lay in the office were stolen last night./,Were the papers still safe?,N,,0,8,the,8,2,7,12,1,7,12,568,1563003055999,N,1978,1
220,2,2,filler,filler_7,,/+/Some important papers which lay in the office were stolen last night./,Were the papers still safe?,N,,0,8,office,9,2,8,12,1,8,12,759,1563003056758,N,1978,1
220,2,2,filler,filler_7,,/+/Some important papers which lay in the office were stolen last night./,Were the papers still safe?,N,,0,8,were,10,2,9,12,1,9,12,1000,1563003057759,N,1978,1
220,2,2,filler,filler_7,,/+/Some important papers which lay in the office were stolen last night./,Were the papers still safe?,N,,0,8,stolen,11,2,10,12,1,10,12,1048,1563003058807,N,1978,1
220,2,2,filler,filler_7,,/+/Some important papers which lay in the office were stolen last night./,Were the papers still safe?,N,,0,8,last,12,2,11,12,1,11,12,664,1563003059471,N,1978,1
220,2,2,filler,filler_7,,/+/Some important papers which lay in the office were stolen last night./,Were the papers still safe?,N,,0,8,night.,13,2,12,12,1,12,12,440,1563003059911,N,1978,1
220,2,3,target,target_1,C,/+/The cotton farmers * who were * warned about the bad floods * had * no other crops./,Did the farmers warn about the floods?,N,,0,9,+,1,1,1,1,1,1,1,1312,1563003063703,Y,5363,0
220,2,3,target,target_1,C,/+/The cotton farmers * who were * warned about the bad floods * had * no other crops./,Did the farmers warn about the floods?,N,,0,9,The,2,2,1,14,1,1,3,424,1563003064127,Y,5363,0
220,2,3,target,target_1,C,/+/The cotton farmers * who were * warned about the bad floods * had * no other crops./,Did the farmers warn about the floods?,N,,0,9,cotton,3,2,2,14,1,2,3,1512,1563003065639,Y,5363,0
220,2,3,target,target_1,C,/+/The cotton farmers * who were * warned about the bad floods * had * no other crops./,Did the farmers warn about the floods?,N,,0,9,farmers,4,2,3,14,1,3,3,4160,1563003069799,Y,5363,0
220,2,3,target,target_1,C,/+/The cotton farmers * who were * warned about the bad floods * had * no other crops./,Did the farmers warn about the floods?,N,,0,9,who,5,2,4,14,2,1,2,848,1563003070647,Y,5363,0
220,2,3,target,target_1,C,/+/The cotton farmers * who were * warned about the bad floods * had * no other crops./,Did the farmers warn about the floods?,N,,0,9,were,6,2,5,14,2,2,2,503,1563003071150,Y,5363,0
220,2,3,target,target_1,C,/+/The cotton farmers * who were * warned about the bad floods * had * no other crops./,Did the farmers warn about the floods?,N,,0,9,warned,7,2,6,14,3,1,5,711,1563003071862,Y,5363,0
220,2,3,target,target_1,C,/+/The cotton farmers * who were * warned about the bad floods * had * no other crops./,Did the farmers warn about the floods?,N,,0,9,about,8,2,7,14,3,2,5,583,1563003072446,Y,5363,0
220,2,3,target,target_1,C,/+/The cotton farmers * who were * warned about the bad floods * had * no other crops./,Did the farmers warn about the floods?,N,,0,9,the,9,2,8,14,3,3,5,808,1563003073254,Y,5363,0
220,2,3,target,target_1,C,/+/The cotton farmers * who were * warned about the bad floods * had * no other crops./,Did the farmers warn about the floods?,N,,0,9,bad,10,2,9,14,3,4,5,471,1563003073726,Y,5363,0
220,2,3,target,target_1,C,/+/The cotton farmers * who were * warned about the bad floods * had * no other crops./,Did the farmers warn about the floods?,N,,0,9,floods,11,2,10,14,3,5,5,799,1563003074526,Y,5363,0
220,2,3,target,target_1,C,/+/The cotton farmers * who were * warned about the bad floods * had * no other crops./,Did the farmers warn about the floods?,N,,0,9,had,12,2,11,14,4,1,1,481,1563003075007,Y,5363,0
220,2,3,target,target_1,C,/+/The cotton farmers * who were * warned about the bad floods * had * no other crops./,Did the farmers warn about the floods?,N,,0,9,no,13,2,12,14,5,1,3,448,1563003075455,Y,5363,0
220,2,3,target,target_1,C,/+/The cotton farmers * who were * warned about the bad floods * had * no other crops./,Did the farmers warn about the floods?,N,,0,9,other,14,2,13,14,5,2,3,544,1563003075999,Y,5363,0
220,2,3,target,target_1,C,/+/The cotton farmers * who were * warned about the bad floods * had * no other crops./,Did the farmers warn about the floods?,N,,0,9,crops.,15,2,14,14,5,3,3,1000,1563003076999,Y,5363,0
220,2,4,filler,filler_10,,/+/There was a big hole in the road which blocked the traffic./,Was there a big hole in the road?,Y,,0,10,+,1,1,1,1,1,1,1,1535,1563003084399,Y,2363,1
220,2,4,filler,filler_10,,/+/There was a big hole in the road which blocked the traffic./,Was there a big hole in the road?,Y,,0,10,There,2,2,1,12,1,1,12,1768,1563003086167,Y,2363,1
220,2,4,filler,filler_10,,/+/There was a big hole in the road which blocked the traffic./,Was there a big hole in the road?,Y,,0,10,was,3,2,2,12,1,2,12,792,1563003086959,Y,2363,1
220,2,4,filler,filler_10,,/+/There was a big hole in the road which blocked the traffic./,Was there a big hole in the road?,Y,,0,10,a,4,2,3,12,1,3,12,695,1563003087654,Y,2363,1
220,2,4,filler,filler_10,,/+/There was a big hole in the road which blocked the traffic./,Was there a big hole in the road?,Y,,0,10,big,5,2,4,12,1,4,12,3619,1563003091273,Y,2363,1
220,2,4,filler,filler_10,,/+/There was a big hole in the road which blocked the traffic./,Was there a big hole in the road?,Y,,0,10,hole,6,2,5,12,1,5,12,1176,1563003092449,Y,2363,1
220,2,4,filler,filler_10,,/+/There was a big hole in the road which blocked the traffic./,Was there a big hole in the road?,Y,,0,10,in,7,2,6,12,1,6,12,694,1563003093143,Y,2363,1
220,2,4,filler,filler_10,,/+/There was a big hole in the road which blocked the traffic./,Was there a big hole in the road?,Y,,0,10,the,8,2,7,12,1,7,12,552,1563003093695,Y,2363,1
220,2,4,filler,filler_10,,/+/There was a big hole in the road which blocked the traffic./,Was there a big hole in the road?,Y,,0,10,road,9,2,8,12,1,8,12,1968,1563003095663,Y,2363,1
220,2,4,filler,filler_10,,/+/There was a big hole in the road which blocked the traffic./,Was there a big hole in the road?,Y,,0,10,which,10,2,9,12,1,9,12,384,1563003096047,Y,2363,1
220,2,4,filler,filler_10,,/+/There was a big hole in the road which blocked the traffic./,Was there a big hole in the road?,Y,,0,10,blocked,11,2,10,12,1,10,12,592,1563003096639,Y,2363,1
220,2,4,filler,filler_10,,/+/There was a big hole in the road which blocked the traffic./,Was there a big hole in the road?,Y,,0,10,the,12,2,11,12,1,11,12,712,1563003097351,Y,2363,1
220,2,4,filler,filler_10,,/+/There was a big hole in the road which blocked the traffic./,Was there a big hole in the road?,Y,,0,10,traffic.,13,2,12,12,1,12,12,648,1563003097999,Y,2363,1
220,2,5,target,target_2,G,/+/The sunburned boys * served the hot dogs * got * a stomach ache./,Did the boys serve the hot dogs?,N,,0,11,+,1,1,1,1,1,1,1,1648,1563003102511,Y,11491,0
220,2,5,target,target_2,G,/+/The sunburned boys * served the hot dogs * got * a stomach ache./,Did the boys serve the hot dogs?,N,,0,11,The,2,2,1,11,1,1,3,447,1563003102958,Y,11491,0
220,2,5,target,target_2,G,/+/The sunburned boys * served the hot dogs * got * a stomach ache./,Did the boys serve the hot dogs?,N,,0,11,sunburned,3,2,2,11,1,2,3,2912,1563003105870,Y,11491,0
220,2,5,target,target_2,G,/+/The sunburned boys * served the hot dogs * got * a stomach ache./,Did the boys serve the hot dogs?,N,,0,11,boys,4,2,3,11,1,3,3,2424,1563003108294,Y,11491,0
220,2,5,target,target_2,G,/+/The sunburned boys * served the hot dogs * got * a stomach ache./,Did the boys serve the hot dogs?,N,,0,11,served,5,2,4,11,2,1,4,1143,1563003109438,Y,11491,0
220,2,5,target,target_2,G,/+/The sunburned boys * served the hot dogs * got * a stomach ache./,Did the boys serve the hot dogs?,N,,0,11,the,6,2,5,11,2,2,4,480,1563003109918,Y,11491,0
220,2,5,target,target_2,G,/+/The sunburned boys * served the hot dogs * got * a stomach ache./,Did the boys serve the hot dogs?,N,,0,11,hot,7,2,6,11,2,3,4,1313,1563003111231,Y,11491,0
220,2,5,target,target_2,G,/+/The sunburned boys * served the hot dogs * got * a stomach ache./,Did the boys serve the hot dogs?,N,,0,11,dogs,8,2,7,11,2,4,4,632,1563003111863,Y,11491,0
220,2,5,target,target_2,G,/+/The sunburned boys * served the hot dogs * got * a stomach ache./,Did the boys serve the hot dogs?,N,,0,11,got,9,2,8,11,3,1,1,520,1563003112383,Y,11491,0
220,2,5,target,target_2,G,/+/The sunburned boys * served the hot dogs * got * a stomach ache./,Did the boys serve the hot dogs?,N,,0,11,a,10,2,9,11,4,1,3,480,1563003112863,Y,11491,0
220,2,5,target,target_2,G,/+/The sunburned boys * served the hot dogs * got * a stomach ache./,Did the boys serve the hot dogs?,N,,0,11,stomach,11,2,10,11,4,2,3,1031,1563003113894,Y,11491,0
220,2,5,target,target_2,G,/+/The sunburned boys * served the hot dogs * got * a stomach ache./,Did the boys serve the hot dogs?,N,,0,11,ache.,12,2,11,11,4,3,3,776,1563003114670,Y,11491,0
220,2,6,filler,filler_17,,/+/The students who failed the exam were asked to take it again./,Should all students take the exam again?,N,,0,12,+,1,1,1,1,1,1,1,1696,1563003128358,N,7099,1
220,2,6,filler,filler_17,,/+/The students who failed the exam were asked to take it again./,Should all students take the exam again?,N,,0,12,The,2,2,1,12,1,1,12,480,1563003128838,N,7099,1
220,2,6,filler,filler_17,,/+/The students who failed the exam were asked to take it again./,Should all students take the exam again?,N,,0,12,students,3,2,2,12,1,2,12,1416,1563003130254,N,7099,1
220,2,6,filler,filler_17,,/+/The students who failed the exam were asked to take it again./,Should all students take the exam again?,N,,0,12,who,4,2,3,12,1,3,12,928,1563003131182,N,7099,1
220,2,6,filler,filler_17,,/+/The students who failed the exam were asked to take it again./,Should all students take the exam again?,N,,0,12,failed,5,2,4,12,1,4,12,456,1563003131638,N,7099,1
220,2,6,filler,filler_17,,/+/The students who failed the exam were asked to take it again./,Should all students take the exam again?,N,,0,12,the,6,2,5,12,1,5,12,528,1563003132166,N,7099,1
220,2,6,filler,filler_17,,/+/The students who failed the exam were asked to take it again./,Should all students take the exam again?,N,,0,12,exam,7,2,6,12,1,6,12,544,1563003132710,N,7099,1
220,2,6,filler,filler_17,,/+/The students who failed the exam were asked to take it again./,Should all students take the exam again?,N,,0,12,were,8,2,7,12,1,7,12,536,1563003133246,N,7099,1
220,2,6,filler,filler_17,,/+/The students who failed the exam were asked to take it again./,Should all students take the exam again?,N,,0,12,asked,9,2,8,12,1,8,12,768,1563003134014,N,7099,1
220,2,6,filler,filler_17,,/+/The students who failed the exam were asked to take it again./,Should all students take the exam again?,N,,0,12,to,10,2,9,12,1,9,12,512,1563003134526,N,7099,1
220,2,6,filler,filler_17,,/+/The students who failed the exam were asked to take it again./,Should all students take the exam again?,N,,0,12,take,11,2,10,12,1,10,12,432,1563003134958,N,7099,1
220,2,6,filler,filler_17,,/+/The students who failed the exam were asked to take it again./,Should all students take the exam again?,N,,0,12,it,12,2,11,12,1,11,12,752,1563003135710,N,7099,1
220,2,6,filler,filler_17,,/+/The students who failed the exam were asked to take it again./,Should all students take the exam again?,N,,0,12,again.,13,2,12,12,1,12,12,752,1563003136462,N,7099,1
220,2,7,filler,filler_25,,/+/The suitcase which Mike bought has been broken down by his son./,Has the suitcase been broken by Mike?,N,,0,13,+,1,1,1,1,1,1,1,1488,1563003145550,N,2980,1
220,2,7,filler,filler_25,,/+/The suitcase which Mike bought has been broken down by his son./,Has the suitcase been broken by Mike?,N,,0,13,The,2,2,1,12,1,1,12,432,1563003145982,N,2980,1
220,2,7,filler,filler_25,,/+/The suitcase which Mike bought has been broken down by his son./,Has the suitcase been broken by Mike?,N,,0,13,suitcase,3,2,2,12,1,2,12,1496,1563003147478,N,2980,1
220,2,7,filler,filler_25,,/+/The suitcase which Mike bought has been broken down by his son./,Has the suitcase been broken by Mike?,N,,0,13,which,4,2,3,12,1,3,12,600,1563003148078,N,2980,1
220,2,7,filler,filler_25,,/+/The suitcase which Mike bought has been broken down by his son./,Has the suitcase been broken by Mike?,N,,0,13,Mike,5,2,4,12,1,4,12,1008,1563003149086,N,2980,1
220,2,7,filler,filler_25,,/+/The suitcase which Mike bought has been broken down by his son./,Has the suitcase been broken by Mike?,N,,0,13,bought,6,2,5,12,1,5,12,528,1563003149614,N,2980,1
220,2,7,filler,filler_25,,/+/The suitcase which Mike bought has been broken down by his son./,Has the suitcase been broken by Mike?,N,,0,13,has,7,2,6,12,1,6,12,528,1563003150142,N,2980,1
220,2,7,filler,filler_25,,/+/The suitcase which Mike bought has been broken down by his son./,Has the suitcase been broken by Mike?,N,,0,13,been,8,2,7,12,1,7,12,520,1563003150662,N,2980,1
220,2,7,filler,filler_25,,/+/The suitcase which Mike bought has been broken down by his son./,Has the suitcase been broken by Mike?,N,,0,13,broken,9,2,8,12,1,8,12,664,1563003151326,N,2980,1
220,2,7,filler,filler_25,,/+/The suitcase which Mike bought has been broken down by his son./,Has the suitcase been broken by Mike?,N,,0,13,down,10,2,9,12,1,9,12,440,1563003151766,N,2980,1
220,2,7,filler,filler_25,,/+/The suitcase which Mike bought has been broken down by his son./,Has the suitcase been broken by Mike?,N,,0,13,by,11,2,10,12,1,10,12,552,1563003152318,N,2980,1
220,2,7,filler,filler_25,,/+/The suitcase which Mike bought has been broken down by his son./,Has the suitcase been broken by Mike?,N,,0,13,his,12,2,11,12,1,11,12,480,1563003152798,N,2980,1
220,2,7,filler,filler_25,,/+/The suitcase which Mike bought has been broken down by his son./,Has the suitcase been broken by Mike?,N,,0,13,son.,13,2,12,12,1,12,12,543,1563003153342,N,2980,1
220,2,8,filler,filler_24,,/+/The roommate has married the man who comes from the west of China./,Has the roommate married?,Y,,0,14,+,1,1,1,1,1,1,1,1151,1563003157974,Y,2252,1
220,2,8,filler,filler_24,,/+/The roommate has married the man who comes from the west of China./,Has the roommate married?,Y,,0,14,The,2,2,1,13,1,1,13,448,1563003158422,Y,2252,1
220,2,8,filler,filler_24,,/+/The roommate has married the man who comes from the west of China./,Has the roommate married?,Y,,0,14,roommate,3,2,2,13,1,2,13,1368,1563003159790,Y,2252,1
220,2,8,filler,filler_24,,/+/The roommate has married the man who comes from the west of China./,Has the roommate married?,Y,,0,14,has,4,2,3,13,1,3,13,752,1563003160542,Y,2252,1
220,2,8,filler,filler_24,,/+/The roommate has married the man who comes from the west of China./,Has the roommate married?,Y,,0,14,married,5,2,4,13,1,4,13,1143,1563003161685,Y,2252,1
220,2,8,filler,filler_24,,/+/The roommate has married the man who comes from the west of China./,Has the roommate married?,Y,,0,14,the,6,2,5,13,1,5,13,640,1563003162325,Y,2252,1
220,2,8,filler,filler_24,,/+/The roommate has married the man who comes from the west of China./,Has the roommate married?,Y,,0,14,man,7,2,6,13,1,6,13,568,1563003162894,Y,2252,1
220,2,8,filler,filler_24,,/+/The roommate has married the man who comes from the west of China./,Has the roommate married?,Y,,0,14,who,8,2,7,13,1,7,13,599,1563003163494,Y,2252,1
220,2,8,filler,filler_24,,/+/The roommate has married the man who comes from the west of China./,Has the roommate married?,Y,,0,14,comes,9,2,8,13,1,8,13,880,1563003164374,Y,2252,1
220,2,8,filler,filler_24,,/+/The roommate has married the man who comes from the west of China./,Has the roommate married?,Y,,0,14,from,10,2,9,13,1,9,13,472,1563003164846,Y,2252,1
220,2,8,filler,filler_24,,/+/The roommate has married the man who comes from the west of China./,Has the roommate married?,Y,,0,14,the,11,2,10,13,1,10,13,416,1563003165262,Y,2252,1
220,2,8,filler,filler_24,,/+/The roommate has married the man who comes from the west of China./,Has the roommate married?,Y,,0,14,west,12,2,11,13,1,11,13,480,1563003165742,Y,2252,1
220,2,8,filler,filler_24,,/+/The roommate has married the man who comes from the west of China./,Has the roommate married?,Y,,0,14,of,13,2,12,13,1,12,13,472,1563003166214,Y,2252,1
220,2,8,filler,filler_24,,/+/The roommate has married the man who comes from the west of China./,Has the roommate married?,Y,,0,14,China.,14,2,13,13,1,13,13,552,1563003166766,Y,2252,1
220,2,9,target,target_15,C,/+/The confused student * who was * asked about a question * lowered * his head silently./,Did the student ask about a question?,N,,0,15,+,1,1,1,1,1,1,1,831,1563003170350,Y,1779,0
220,2,9,target,target_15,C,/+/The confused student * who was * asked about a question * lowered * his head silently./,Did the student ask about a question?,N,,0,15,The,2,2,1,13,1,1,3,503,1563003170853,Y,1779,0
220,2,9,target,target_15,C,/+/The confused student * who was * asked about a question * lowered * his head silently./,Did the student ask about a question?,N,,0,15,confused,3,2,2,13,1,2,3,4994,1563003175847,Y,1779,0
220,2,9,target,target_15,C,/+/The confused student * who was * asked about a question * lowered * his head silently./,Did the student ask about a question?,N,,0,15,student,4,2,3,13,1,3,3,600,1563003176447,Y,1779,0
220,2,9,target,target_15,C,/+/The confused student * who was * asked about a question * lowered * his head silently./,Did the student ask about a question?,N,,0,15,who,5,2,4,13,2,1,2,1192,1563003177639,Y,1779,0
220,2,9,target,target_15,C,/+/The confused student * who was * asked about a question * lowered * his head silently./,Did the student ask about a question?,N,,0,15,was,6,2,5,13,2,2,2,631,1563003178270,Y,1779,0
220,2,9,target,target_15,C,/+/The confused student * who was * asked about a question * lowered * his head silently./,Did the student ask about a question?,N,,0,15,asked,7,2,6,13,3,1,4,439,1563003178710,Y,1779,0
220,2,9,target,target_15,C,/+/The confused student * who was * asked about a question * lowered * his head silently./,Did the student ask about a question?,N,,0,15,about,8,2,7,13,3,2,4,535,1563003179246,Y,1779,0
220,2,9,target,target_15,C,/+/The confused student * who was * asked about a question * lowered * his head silently./,Did the student ask about a question?,N,,0,15,a,9,2,8,13,3,3,4,1392,1563003180639,Y,1779,0
220,2,9,target,target_15,C,/+/The confused student * who was * asked about a question * lowered * his head silently./,Did the student ask about a question?,N,,0,15,question,10,2,9,13,3,4,4,503,1563003181143,Y,1779,0
220,2,9,target,target_15,C,/+/The confused student * who was * asked about a question * lowered * his head silently./,Did the student ask about a question?,N,,0,15,lowered,11,2,10,13,4,1,1,432,1563003181575,Y,1779,0
220,2,9,target,target_15,C,/+/The confused student * who was * asked about a question * lowered * his head silently./,Did the student ask about a question?,N,,0,15,his,12,2,11,13,5,1,3,696,1563003182271,Y,1779,0
220,2,9,target,target_15,C,/+/The confused student * who was * asked about a question * lowered * his head silently./,Did the student ask about a question?,N,,0,15,head,13,2,12,13,5,2,3,560,1563003182831,Y,1779,0
220,2,9,target,target_15,C,/+/The confused student * who was * asked about a question * lowered * his head silently./,Did the student ask about a question?,N,,0,15,silently.,14,2,13,13,5,3,3,944,1563003183775,Y,1779,0
220,2,10,filler,filler_22,,/+/The girl's life was saved because the doctor acted so well./,Did the girl die?,N,,0,16,+,1,1,1,1,1,1,1,856,1563003186911,N,2227,1
220,2,10,filler,filler_22,,/+/The girl's life was saved because the doctor acted so well./,Did the girl die?,N,,0,16,The,2,2,1,11,1,1,11,424,1563003187335,N,2227,1
220,2,10,filler,filler_22,,/+/The girl's life was saved because the doctor acted so well./,Did the girl die?,N,,0,16,girl's,3,2,2,11,1,2,11,1064,1563003188399,N,2227,1
220,2,10,filler,filler_22,,/+/The girl's life was saved because the doctor acted so well./,Did the girl die?,N,,0,16,life,4,2,3,11,1,3,11,600,1563003188999,N,2227,1
220,2,10,filler,filler_22,,/+/The girl's life was saved because the doctor acted so well./,Did the girl die?,N,,0,16,was,5,2,4,11,1,4,11,496,1563003189495,N,2227,1
220,2,10,filler,filler_22,,/+/The girl's life was saved because the doctor acted so well./,Did the girl die?,N,,0,16,saved,6,2,5,11,1,5,11,1088,1563003190583,N,2227,1
220,2,10,filler,filler_22,,/+/The girl's life was saved because the doctor acted so well./,Did the girl die?,N,,0,16,because,7,2,6,11,1,6,11,1128,1563003191711,N,2227,1
220,2,10,filler,filler_22,,/+/The girl's life was saved because the doctor acted so well./,Did the girl die?,N,,0,16,the,8,2,7,11,1,7,11,399,1563003192110,N,2227,1
220,2,10,filler,filler_22,,/+/The girl's life was saved because the doctor acted so well./,Did the girl die?,N,,0,16,doctor,9,2,8,11,1,8,11,465,1563003192575,N,2227,1
220,2,10,filler,filler_22,,/+/The girl's life was saved because the doctor acted so well./,Did the girl die?,N,,0,16,acted,10,2,9,11,1,9,11,575,1563003193150,N,2227,1
220,2,10,filler,filler_22,,/+/The girl's life was saved because the doctor acted so well./,Did the girl die?,N,,0,16,so,11,2,10,11,1,10,11,633,1563003193783,N,2227,1
220,2,10,filler,filler_22,,/+/The girl's life was saved because the doctor acted so well./,Did the girl die?,N,,0,16,well.,12,2,11,11,1,11,11,648,1563003194431,N,2227,1
220,2,11,target,target_4,C,/+/The convicted criminal * who was * watched at the railway station * was * following the boy./,Did someone watch the criminal?,Y,,0,17,+,1,1,1,1,1,1,1,1784,1563003198943,Y,3900,1
220,2,11,target,target_4,C,/+/The convicted criminal * who was * watched at the railway station * was * following the boy./,Did someone watch the criminal?,Y,,0,17,The,2,2,1,14,1,1,3,639,1563003199583,Y,3900,1
220,2,11,target,target_4,C,/+/The convicted criminal * who was * watched at the railway station * was * following the boy./,Did someone watch the criminal?,Y,,0,17,convicted,3,2,2,14,1,2,3,4112,1563003203695,Y,3900,1
220,2,11,target,target_4,C,/+/The convicted criminal * who was * watched at the railway station * was * following the boy./,Did someone watch the criminal?,Y,,0,17,criminal,4,2,3,14,1,3,3,1744,1563003205439,Y,3900,1
220,2,11,target,target_4,C,/+/The convicted criminal * who was * watched at the railway station * was * following the boy./,Did someone watch the criminal?,Y,,0,17,who,5,2,4,14,2,1,2,887,1563003206326,Y,3900,1
220,2,11,target,target_4,C,/+/The convicted criminal * who was * watched at the railway station * was * following the boy./,Did someone watch the criminal?,Y,,0,17,was,6,2,5,14,2,2,2,401,1563003206727,Y,3900,1
220,2,11,target,target_4,C,/+/The convicted criminal * who was * watched at the railway station * was * following the boy./,Did someone watch the criminal?,Y,,0,17,watched,7,2,6,14,3,1,5,583,1563003207310,Y,3900,1
220,2,11,target,target_4,C,/+/The convicted criminal * who was * watched at the railway station * was * following the boy./,Did someone watch the criminal?,Y,,0,17,at,8,2,7,14,3,2,5,529,1563003207839,Y,3900,1
220,2,11,target,target_4,C,/+/The convicted criminal * who was * watched at the railway station * was * following the boy./,Did someone watch the criminal?,Y,,0,17,the,9,2,8,14,3,3,5,511,1563003208350,Y,3900,1
220,2,11,target,target_4,C,/+/The convicted criminal * who was * watched at the railway station * was * following the boy./,Did someone watch the criminal?,Y,,0,17,railway,10,2,9,14,3,4,5,825,1563003209175,Y,3900,1
220,2,11,target,target_4,C,/+/The convicted criminal * who was * watched at the railway station * was * following the boy./,Did someone watch the criminal?,Y,,0,17,station,11,2,10,14,3,5,5,704,1563003209879,Y,3900,1
220,2,11,target,target_4,C,/+/The convicted criminal * who was * watched at the railway station * was * following the boy./,Did someone watch the criminal?,Y,,0,17,was,12,2,11,14,4,1,1,640,1563003210519,Y,3900,1
220,2,11,target,target_4,C,/+/The convicted criminal * who was * watched at the railway station * was * following the boy./,Did someone watch the criminal?,Y,,0,17,following,13,2,12,14,5,1,3,600,1563003211119,Y,3900,1
220,2,11,target,target_4,C,/+/The convicted criminal * who was * watched at the railway station * was * following the boy./,Did someone watch the criminal?,Y,,0,17,the,14,2,13,14,5,2,3,560,1563003211679,Y,3900,1
220,2,11,target,target_4,C,/+/The convicted criminal * who was * watched at the railway station * was * following the boy./,Did someone watch the criminal?,Y,,0,17,boy.,15,2,14,14,5,3,3,1128,1563003212807,Y,3900,1
220,2,12,filler,filler_35,,/+/The company building was completed successfully in the third quarter./,Was the company building completed?,Y,,0,18,+,1,1,1,1,1,1,1,2047,1563003219255,Y,3411,1
220,2,12,filler,filler_35,,/+/The company building was completed successfully in the third quarter./,Was the company building completed?,Y,,0,18,The,2,2,1,10,1,1,10,456,1563003219711,Y,3411,1
220,2,12,filler,filler_35,,/+/The company building was completed successfully in the third quarter./,Was the company building completed?,Y,,0,18,company,3,2,2,10,1,2,10,888,1563003220599,Y,3411,1
220,2,12,filler,filler_35,,/+/The company building was completed successfully in the third quarter./,Was the company building completed?,Y,,0,18,building,4,2,3,10,1,3,10,1112,1563003221711,Y,3411,1
220,2,12,filler,filler_35,,/+/The company building was completed successfully in the third quarter./,Was the company building completed?,Y,,0,18,was,5,2,4,10,1,4,10,480,1563003222191,Y,3411,1
220,2,12,filler,filler_35,,/+/The company building was completed successfully in the third quarter./,Was the company building completed?,Y,,0,18,completed,6,2,5,10,1,5,10,856,1563003223047,Y,3411,1
220,2,12,filler,filler_35,,/+/The company building was completed successfully in the third quarter./,Was the company building completed?,Y,,0,18,successfully,7,2,6,10,1,6,10,792,1563003223839,Y,3411,1
220,2,12,filler,filler_35,,/+/The company building was completed successfully in the third quarter./,Was the company building completed?,Y,,0,18,in,8,2,7,10,1,7,10,592,1563003224431,Y,3411,1
220,2,12,filler,filler_35,,/+/The company building was completed successfully in the third quarter./,Was the company building completed?,Y,,0,18,the,9,2,8,10,1,8,10,496,1563003224927,Y,3411,1
220,2,12,filler,filler_35,,/+/The company building was completed successfully in the third quarter./,Was the company building completed?,Y,,0,18,third,10,2,9,10,1,9,10,920,1563003225847,Y,3411,1
220,2,12,filler,filler_35,,/+/The company building was completed successfully in the third quarter./,Was the company building completed?,Y,,0,18,quarter.,11,2,10,10,1,10,10,1128,1563003226975,Y,3411,1
220,2,13,target,target_8,G,/+/The older kids * showed all the dances * felt * amazed at the party./,Did the older kids show the dances?,N,,0,19,+,1,1,1,1,1,1,1,1191,1563003232078,Y,5708,0
220,2,13,target,target_8,G,/+/The older kids * showed all the dances * felt * amazed at the party./,Did the older kids show the dances?,N,,0,19,The,2,2,1,12,1,1,3,504,1563003232583,Y,5708,0
220,2,13,target,target_8,G,/+/The older kids * showed all the dances * felt * amazed at the party./,Did the older kids show the dances?,N,,0,19,older,3,2,2,12,1,2,3,1360,1563003233944,Y,5708,0
220,2,13,target,target_8,G,/+/The older kids * showed all the dances * felt * amazed at the party./,Did the older kids show the dances?,N,,0,19,kids,4,2,3,12,1,3,3,2133,1563003236078,Y,5708,0
220,2,13,target,target_8,G,/+/The older kids * showed all the dances * felt * amazed at the party./,Did the older kids show the dances?,N,,0,19,showed,5,2,4,12,2,1,4,1352,1563003237430,Y,5708,0
220,2,13,target,target_8,G,/+/The older kids * showed all the dances * felt * amazed at the party./,Did the older kids show the dances?,N,,0,19,all,6,2,5,12,2,2,4,1455,1563003238885,Y,5708,0
220,2,13,target,target_8,G,/+/The older kids * showed all the dances * felt * amazed at the party./,Did the older kids show the dances?,N,,0,19,the,7,2,6,12,2,3,4,1096,1563003239982,Y,5708,0
220,2,13,target,target_8,G,/+/The older kids * showed all the dances * felt * amazed at the party./,Did the older kids show the dances?,N,,0,19,dances,8,2,7,12,2,4,4,1056,1563003241038,Y,5708,0
220,2,13,target,target_8,G,/+/The older kids * showed all the dances * felt * amazed at the party./,Did the older kids show the dances?,N,,0,19,felt,9,2,8,12,3,1,1,3024,1563003244062,Y,5708,0
220,2,13,target,target_8,G,/+/The older kids * showed all the dances * felt * amazed at the party./,Did the older kids show the dances?,N,,0,19,amazed,10,2,9,12,4,1,4,656,1563003244718,Y,5708,0
220,2,13,target,target_8,G,/+/The older kids * showed all the dances * felt * amazed at the party./,Did the older kids show the dances?,N,,0,19,at,11,2,10,12,4,2,4,464,1563003245182,Y,5708,0
220,2,13,target,target_8,G,/+/The older kids * showed all the dances * felt * amazed at the party./,Did the older kids show the dances?,N,,0,19,the,12,2,11,12,4,3,4,424,1563003245606,Y,5708,0
220,2,13,target,target_8,G,/+/The older kids * showed all the dances * felt * amazed at the party./,Did the older kids show the dances?,N,,0,19,party.,13,2,12,12,4,4,4,528,1563003246134,Y,5708,0
220,2,14,filler,filler_27,,/+/The letter that came this morning was from a friendly classmate./,Did the letter arrive this morning?,Y,,0,20,+,1,1,1,1,1,1,1,1823,1563003254166,Y,2724,1
220,2,14,filler,filler_27,,/+/The letter that came this morning was from a friendly classmate./,Did the letter arrive this morning?,Y,,0,20,The,2,2,1,11,1,1,11,488,1563003254654,Y,2724,1
220,2,14,filler,filler_27,,/+/The letter that came this morning was from a friendly classmate./,Did the letter arrive this morning?,Y,,0,20,letter,3,2,2,11,1,2,11,1648,1563003256302,Y,2724,1
220,2,14,filler,filler_27,,/+/The letter that came this morning was from a friendly classmate./,Did the letter arrive this morning?,Y,,0,20,that,4,2,3,11,1,3,11,576,1563003256878,Y,2724,1
220,2,14,filler,filler_27,,/+/The letter that came this morning was from a friendly classmate./,Did the letter arrive this morning?,Y,,0,20,came,5,2,4,11,1,4,11,800,1563003257678,Y,2724,1
220,2,14,filler,filler_27,,/+/The letter that came this morning was from a friendly classmate./,Did the letter arrive this morning?,Y,,0,20,this,6,2,5,11,1,5,11,896,1563003258574,Y,2724,1
220,2,14,filler,filler_27,,/+/The letter that came this morning was from a friendly classmate./,Did the letter arrive this morning?,Y,,0,20,morning,7,2,6,11,1,6,11,1160,1563003259734,Y,2724,1
220,2,14,filler,filler_27,,/+/The letter that came this morning was from a friendly classmate./,Did the letter arrive this morning?,Y,,0,20,was,8,2,7,11,1,7,11,1048,1563003260782,Y,2724,1
220,2,14,filler,filler_27,,/+/The letter that came this morning was from a friendly classmate./,Did the letter arrive this morning?,Y,,0,20,from,9,2,8,11,1,8,11,2832,1563003263614,Y,2724,1
220,2,14,filler,filler_27,,/+/The letter that came this morning was from a friendly classmate./,Did the letter arrive this morning?,Y,,0,20,a,10,2,9,11,1,9,11,400,1563003264014,Y,2724,1
220,2,14,filler,filler_27,,/+/The letter that came this morning was from a friendly classmate./,Did the letter arrive this morning?,Y,,0,20,friendly,11,2,10,11,1,10,11,688,1563003264702,Y,2724,1
220,2,14,filler,filler_27,,/+/The letter that came this morning was from a friendly classmate./,Did the letter arrive this morning?,Y,,0,20,classmate.,12,2,11,11,1,11,11,696,1563003265398,Y,2724,1
220,2,15,filler,filler_15,,/+/The book contained many useful information which could benefit the health./,Could the book be helpful for health?,Y,,0,21,+,1,1,1,1,1,1,1,807,1563003269430,Y,2773,1
220,2,15,filler,filler_15,,/+/The book contained many useful information which could benefit the health./,Could the book be helpful for health?,Y,,0,21,The,2,2,1,11,1,1,11,528,1563003269958,Y,2773,1
220,2,15,filler,filler_15,,/+/The book contained many useful information which could benefit the health./,Could the book be helpful for health?,Y,,0,21,book,3,2,2,11,1,2,11,568,1563003270526,Y,2773,1
220,2,15,filler,filler_15,,/+/The book contained many useful information which could benefit the health./,Could the book be helpful for health?,Y,,0,21,contained,4,2,3,11,1,3,11,1944,1563003272470,Y,2773,1
220,2,15,filler,filler_15,,/+/The book contained many useful information which could benefit the health./,Could the book be helpful for health?,Y,,0,21,many,5,2,4,11,1,4,11,592,1563003273062,Y,2773,1
220,2,15,filler,filler_15,,/+/The book contained many useful information which could benefit the health./,Could the book be helpful for health?,Y,,0,21,useful,6,2,5,11,1,5,11,1648,1563003274710,Y,2773,1
220,2,15,filler,filler_15,,/+/The book contained many useful information which could benefit the health./,Could the book be helpful for health?,Y,,0,21,information,7,2,6,11,1,6,11,744,1563003275454,Y,2773,1
220,2,15,filler,filler_15,,/+/The book contained many useful information which could benefit the health./,Could the book be helpful for health?,Y,,0,21,which,8,2,7,11,1,7,11,1272,1563003276726,Y,2773,1
220,2,15,filler,filler_15,,/+/The book contained many useful information which could benefit the health./,Could the book be helpful for health?,Y,,0,21,could,9,2,8,11,1,8,11,1192,1563003277918,Y,2773,1
220,2,15,filler,filler_15,,/+/The book contained many useful information which could benefit the health./,Could the book be helpful for health?,Y,,0,21,benefit,10,2,9,11,1,9,11,392,1563003278310,Y,2773,1
220,2,15,filler,filler_15,,/+/The book contained many useful information which could benefit the health./,Could the book be helpful for health?,Y,,0,21,the,11,2,10,11,1,10,11,440,1563003278750,Y,2773,1
220,2,15,filler,filler_15,,/+/The book contained many useful information which could benefit the health./,Could the book be helpful for health?,Y,,0,21,health.,12,2,11,11,1,11,11,663,1563003279413,Y,2773,1
220,2,16,target,target_6,C,/+/The six volunteers * who were * taught the complicated procedure * became * very good students./,Did the volunteers teach the procedure?,N,,0,22,+,1,1,1,1,1,1,1,774,1563003283461,N,4189,1
220,2,16,target,target_6,C,/+/The six volunteers * who were * taught the complicated procedure * became * very good students./,Did the volunteers teach the procedure?,N,,0,22,The,2,2,1,13,1,1,3,440,1563003283901,N,4189,1
220,2,16,target,target_6,C,/+/The six volunteers * who were * taught the complicated procedure * became * very good students./,Did the volunteers teach the procedure?,N,,0,22,six,3,2,2,13,1,2,3,431,1563003284333,N,4189,1
220,2,16,target,target_6,C,/+/The six volunteers * who were * taught the complicated procedure * became * very good students./,Did the volunteers teach the procedure?,N,,0,22,volunteers,4,2,3,13,1,3,3,912,1563003285246,N,4189,1
220,2,16,target,target_6,C,/+/The six volunteers * who were * taught the complicated procedure * became * very good students./,Did the volunteers teach the procedure?,N,,0,22,who,5,2,4,13,2,1,2,615,1563003285862,N,4189,1
220,2,16,target,target_6,C,/+/The six volunteers * who were * taught the complicated procedure * became * very good students./,Did the volunteers teach the procedure?,N,,0,22,were,6,2,5,13,2,2,2,455,1563003286318,N,4189,1
220,2,16,target,target_6,C,/+/The six volunteers * who were * taught the complicated procedure * became * very good students./,Did the volunteers teach the procedure?,N,,0,22,taught,7,2,6,13,3,1,4,647,1563003286966,N,4189,1
220,2,16,target,target_6,C,/+/The six volunteers * who were * taught the complicated procedure * became * very good students./,Did the volunteers teach the procedure?,N,,0,22,the,8,2,7,13,3,2,4,392,1563003287358,N,4189,1
220,2,16,target,target_6,C,/+/The six volunteers * who were * taught the complicated procedure * became * very good students./,Did the volunteers teach the procedure?,N,,0,22,complicated,9,2,8,13,3,3,4,504,1563003287862,N,4189,1
220,2,16,target,target_6,C,/+/The six volunteers * who were * taught the complicated procedure * became * very good students./,Did the volunteers teach the procedure?,N,,0,22,procedure,10,2,9,13,3,4,4,1560,1563003289422,N,4189,1
220,2,16,target,target_6,C,/+/The six volunteers * who were * taught the complicated procedure * became * very good students./,Did the volunteers teach the procedure?,N,,0,22,became,11,2,10,13,4,1,1,472,1563003289894,N,4189,1
220,2,16,target,target_6,C,/+/The six volunteers * who were * taught the complicated procedure * became * very good students./,Did the volunteers teach the procedure?,N,,0,22,very,12,2,11,13,5,1,3,536,1563003290430,N,4189,1
220,2,16,target,target_6,C,/+/The six volunteers * who were * taught the complicated procedure * became * very good students./,Did the volunteers teach the procedure?,N,,0,22,good,13,2,12,13,5,2,3,592,1563003291022,N,4189,1
220,2,16,target,target_6,C,/+/The six volunteers * who were * taught the complicated procedure * became * very good students./,Did the volunteers teach the procedure?,N,,0,22,students.,14,2,13,13,5,3,3,1376,1563003292398,N,4189,1
220,2,17,filler,filler_5,,/+/The author said that the new book was based on a real story./,Was the book entirely imaginary? ,N,,0,23,+,1,1,1,1,1,1,1,1247,1563003298335,N,2444,1
220,2,17,filler,filler_5,,/+/The author said that the new book was based on a real story./,Was the book entirely imaginary? ,N,,0,23,The,2,2,1,13,1,1,13,520,1563003298855,N,2444,1
220,2,17,filler,filler_5,,/+/The author said that the new book was based on a real story./,Was the book entirely imaginary? ,N,,0,23,author,3,2,2,13,1,2,13,847,1563003299702,N,2444,1
220,2,17,filler,filler_5,,/+/The author said that the new book was based on a real story./,Was the book entirely imaginary? ,N,,0,23,said,4,2,3,13,1,3,13,585,1563003300287,N,2444,1
220,2,17,filler,filler_5,,/+/The author said that the new book was based on a real story./,Was the book entirely imaginary? ,N,,0,23,that,5,2,4,13,1,4,13,856,1563003301143,N,2444,1
220,2,17,filler,filler_5,,/+/The author said that the new book was based on a real story./,Was the book entirely imaginary? ,N,,0,23,the,6,2,5,13,1,5,13,647,1563003301790,N,2444,1
220,2,17,filler,filler_5,,/+/The author said that the new book was based on a real story./,Was the book entirely imaginary? ,N,,0,23,new,7,2,6,13,1,6,13,681,1563003302471,N,2444,1
220,2,17,filler,filler_5,,/+/The author said that the new book was based on a real story./,Was the book entirely imaginary? ,N,,0,23,book,8,2,7,13,1,7,13,383,1563003302855,N,2444,1
220,2,17,filler,filler_5,,/+/The author said that the new book was based on a real story./,Was the book entirely imaginary? ,N,,0,23,was,9,2,8,13,1,8,13,455,1563003303311,N,2444,1
220,2,17,filler,filler_5,,/+/The author said that the new book was based on a real story./,Was the book entirely imaginary? ,N,,0,23,based,10,2,9,13,1,9,13,687,1563003303999,N,2444,1
220,2,17,filler,filler_5,,/+/The author said that the new book was based on a real story./,Was the book entirely imaginary? ,N,,0,23,on,11,2,10,13,1,10,13,615,1563003304615,N,2444,1
220,2,17,filler,filler_5,,/+/The author said that the new book was based on a real story./,Was the book entirely imaginary? ,N,,0,23,a,12,2,11,13,1,11,13,400,1563003305015,N,2444,1
220,2,17,filler,filler_5,,/+/The author said that the new book was based on a real story./,Was the book entirely imaginary? ,N,,0,23,real,13,2,12,13,1,12,13,488,1563003305503,N,2444,1
220,2,17,filler,filler_5,,/+/The author said that the new book was based on a real story./,Was the book entirely imaginary? ,N,,0,23,story.,14,2,13,13,1,13,13,352,1563003305855,N,2444,1
220,2,18,filler,filler_38,,/+/The gatekeeper refused to hand over the door key to the man./,Did the gatekeeper refuse to hand over the key?,Y,,0,24,+,1,1,1,1,1,1,1,816,1563003309615,Y,3324,1
220,2,18,filler,filler_38,,/+/The gatekeeper refused to hand over the door key to the man./,Did the gatekeeper refuse to hand over the key?,Y,,0,24,The,2,2,1,12,1,1,12,464,1563003310079,Y,3324,1
220,2,18,filler,filler_38,,/+/The gatekeeper refused to hand over the door key to the man./,Did the gatekeeper refuse to hand over the key?,Y,,0,24,gatekeeper,3,2,2,12,1,2,12,1296,1563003311375,Y,3324,1
220,2,18,filler,filler_38,,/+/The gatekeeper refused to hand over the door key to the man./,Did the gatekeeper refuse to hand over the key?,Y,,0,24,refused,4,2,3,12,1,3,12,896,1563003312271,Y,3324,1
220,2,18,filler,filler_38,,/+/The gatekeeper refused to hand over the door key to the man./,Did the gatekeeper refuse to hand over the key?,Y,,0,24,to,5,2,4,12,1,4,12,456,1563003312727,Y,3324,1
220,2,18,filler,filler_38,,/+/The gatekeeper refused to hand over the door key to the man./,Did the gatekeeper refuse to hand over the key?,Y,,0,24,hand,6,2,5,12,1,5,12,448,1563003313175,Y,3324,1
220,2,18,filler,filler_38,,/+/The gatekeeper refused to hand over the door key to the man./,Did the gatekeeper refuse to hand over the key?,Y,,0,24,over,7,2,6,12,1,6,12,504,1563003313679,Y,3324,1
220,2,18,filler,filler_38,,/+/The gatekeeper refused to hand over the door key to the man./,Did the gatekeeper refuse to hand over the key?,Y,,0,24,the,8,2,7,12,1,7,12,464,1563003314143,Y,3324,1
220,2,18,filler,filler_38,,/+/The gatekeeper refused to hand over the door key to the man./,Did the gatekeeper refuse to hand over the key?,Y,,0,24,door,9,2,8,12,1,8,12,440,1563003314583,Y,3324,1
220,2,18,filler,filler_38,,/+/The gatekeeper refused to hand over the door key to the man./,Did the gatekeeper refuse to hand over the key?,Y,,0,24,key,10,2,9,12,1,9,12,536,1563003315119,Y,3324,1
220,2,18,filler,filler_38,,/+/The gatekeeper refused to hand over the door key to the man./,Did the gatekeeper refuse to hand over the key?,Y,,0,24,to,11,2,10,12,1,10,12,456,1563003315575,Y,3324,1
220,2,18,filler,filler_38,,/+/The gatekeeper refused to hand over the door key to the man./,Did the gatekeeper refuse to hand over the key?,Y,,0,24,the,12,2,11,12,1,11,12,472,1563003316047,Y,3324,1
220,2,18,filler,filler_38,,/+/The gatekeeper refused to hand over the door key to the man./,Did the gatekeeper refuse to hand over the key?,Y,,0,24,man.,13,2,12,12,1,12,12,432,1563003316479,Y,3324,1
220,2,19,filler,filler_37,,/+/The tiger was caught after it ate two persons within one week./,Was the tiger caught?,Y,,0,25,+,1,1,1,1,1,1,1,831,1563003321135,Y,3516,1
220,2,19,filler,filler_37,,/+/The tiger was caught after it ate two persons within one week./,Was the tiger caught?,Y,,0,25,The,2,2,1,12,1,1,12,888,1563003322023,Y,3516,1
220,2,19,filler,filler_37,,/+/The tiger was caught after it ate two persons within one week./,Was the tiger caught?,Y,,0,25,tiger,3,2,2,12,1,2,12,1536,1563003323559,Y,3516,1
220,2,19,filler,filler_37,,/+/The tiger was caught after it ate two persons within one week./,Was the tiger caught?,Y,,0,25,was,4,2,3,12,1,3,12,336,1563003323895,Y,3516,1
220,2,19,filler,filler_37,,/+/The tiger was caught after it ate two persons within one week./,Was the tiger caught?,Y,,0,25,caught,5,2,4,12,1,4,12,624,1563003324519,Y,3516,1
220,2,19,filler,filler_37,,/+/The tiger was caught after it ate two persons within one week./,Was the tiger caught?,Y,,0,25,after,6,2,5,12,1,5,12,576,1563003325095,Y,3516,1
220,2,19,filler,filler_37,,/+/The tiger was caught after it ate two persons within one week./,Was the tiger caught?,Y,,0,25,it,7,2,6,12,1,6,12,344,1563003325439,Y,3516,1
220,2,19,filler,filler_37,,/+/The tiger was caught after it ate two persons within one week./,Was the tiger caught?,Y,,0,25,ate,8,2,7,12,1,7,12,376,1563003325815,Y,3516,1
220,2,19,filler,filler_37,,/+/The tiger was caught after it ate two persons within one week./,Was the tiger caught?,Y,,0,25,two,9,2,8,12,1,8,12,456,1563003326271,Y,3516,1
220,2,19,filler,filler_37,,/+/The tiger was caught after it ate two persons within one week./,Was the tiger caught?,Y,,0,25,persons,10,2,9,12,1,9,12,784,1563003327055,Y,3516,1
220,2,19,filler,filler_37,,/+/The tiger was caught after it ate two persons within one week./,Was the tiger caught?,Y,,0,25,within,11,2,10,12,1,10,12,480,1563003327535,Y,3516,1
220,2,19,filler,filler_37,,/+/The tiger was caught after it ate two persons within one week./,Was the tiger caught?,Y,,0,25,one,12,2,11,12,1,11,12,568,1563003328103,Y,3516,1
220,2,19,filler,filler_37,,/+/The tiger was caught after it ate two persons within one week./,Was the tiger caught?,Y,,0,25,week.,13,2,12,12,1,12,12,632,1563003328735,Y,3516,1
220,2,20,target,target_7,G,/+/The old man * advised on the special diet * has * not responded./,Did the old man advise on the diet?,N,,0,26,+,1,1,1,1,1,1,1,1295,1563003334047,N,9716,1
220,2,20,target,target_7,G,/+/The old man * advised on the special diet * has * not responded./,Did the old man advise on the diet?,N,,0,26,The,2,2,1,11,1,1,3,2632,1563003336679,N,9716,1
220,2,20,target,target_7,G,/+/The old man * advised on the special diet * has * not responded./,Did the old man advise on the diet?,N,,0,26,old,3,2,2,11,1,2,3,760,1563003337439,N,9716,1
220,2,20,target,target_7,G,/+/The old man * advised on the special diet * has * not responded./,Did the old man advise on the diet?,N,,0,26,man,4,2,3,11,1,3,3,1119,1563003338559,N,9716,1
220,2,20,target,target_7,G,/+/The old man * advised on the special diet * has * not responded./,Did the old man advise on the diet?,N,,0,26,advised,5,2,4,11,2,1,5,1791,1563003340351,N,9716,1
220,2,20,target,target_7,G,/+/The old man * advised on the special diet * has * not responded./,Did the old man advise on the diet?,N,,0,26,on,6,2,5,11,2,2,5,664,1563003341015,N,9716,1
220,2,20,target,target_7,G,/+/The old man * advised on the special diet * has * not responded./,Did the old man advise on the diet?,N,,0,26,the,7,2,6,11,2,3,5,440,1563003341455,N,9716,1
220,2,20,target,target_7,G,/+/The old man * advised on the special diet * has * not responded./,Did the old man advise on the diet?,N,,0,26,special,8,2,7,11,2,4,5,504,1563003341959,N,9716,1
220,2,20,target,target_7,G,/+/The old man * advised on the special diet * has * not responded./,Did the old man advise on the diet?,N,,0,26,diet,9,2,8,11,2,5,5,768,1563003342727,N,9716,1
220,2,20,target,target_7,G,/+/The old man * advised on the special diet * has * not responded./,Did the old man advise on the diet?,N,,0,26,has,10,2,9,11,3,1,1,520,1563003343247,N,9716,1
220,2,20,target,target_7,G,/+/The old man * advised on the special diet * has * not responded./,Did the old man advise on the diet?,N,,0,26,not,11,2,10,11,4,1,2,1024,1563003344271,N,9716,1
220,2,20,target,target_7,G,/+/The old man * advised on the special diet * has * not responded./,Did the old man advise on the diet?,N,,0,26,responded.,12,2,11,11,4,2,2,1312,1563003345583,N,9716,1
220,2,21,filler,filler_18,,/+/The actual price of the clothes was much higher than the man had expected./,Was the price of the clothes low?,N,,0,27,+,1,1,1,1,1,1,1,1231,1563003357031,N,2156,1
220,2,21,filler,filler_18,,/+/The actual price of the clothes was much higher than the man had expected./,Was the price of the clothes low?,N,,0,27,The,2,2,1,14,1,1,14,422,1563003357454,N,2156,1
220,2,21,filler,filler_18,,/+/The actual price of the clothes was much higher than the man had expected./,Was the price of the clothes low?,N,,0,27,actual,3,2,2,14,1,2,14,799,1563003358254,N,2156,1
220,2,21,filler,filler_18,,/+/The actual price of the clothes was much higher than the man had expected./,Was the price of the clothes low?,N,,0,27,price,4,2,3,14,1,3,14,936,1563003359190,N,2156,1
220,2,21,filler,filler_18,,/+/The actual price of the clothes was much higher than the man had expected./,Was the price of the clothes low?,N,,0,27,of,5,2,4,14,1,4,14,488,1563003359678,N,2156,1
220,2,21,filler,filler_18,,/+/The actual price of the clothes was much higher than the man had expected./,Was the price of the clothes low?,N,,0,27,the,6,2,5,14,1,5,14,392,1563003360070,N,2156,1
220,2,21,filler,filler_18,,/+/The actual price of the clothes was much higher than the man had expected./,Was the price of the clothes low?,N,,0,27,clothes,7,2,6,14,1,6,14,511,1563003360582,N,2156,1
220,2,21,filler,filler_18,,/+/The actual price of the clothes was much higher than the man had expected./,Was the price of the clothes low?,N,,0,27,was,8,2,7,14,1,7,14,1000,1563003361582,N,2156,1
220,2,21,filler,filler_18,,/+/The actual price of the clothes was much higher than the man had expected./,Was the price of the clothes low?,N,,0,27,much,9,2,8,14,1,8,14,456,1563003362038,N,2156,1
220,2,21,filler,filler_18,,/+/The actual price of the clothes was much higher than the man had expected./,Was the price of the clothes low?,N,,0,27,higher,10,2,9,14,1,9,14,712,1563003362750,N,2156,1
220,2,21,filler,filler_18,,/+/The actual price of the clothes was much higher than the man had expected./,Was the price of the clothes low?,N,,0,27,than,11,2,10,14,1,10,14,360,1563003363110,N,2156,1
220,2,21,filler,filler_18,,/+/The actual price of the clothes was much higher than the man had expected./,Was the price of the clothes low?,N,,0,27,the,12,2,11,14,1,11,14,368,1563003363478,N,2156,1
220,2,21,filler,filler_18,,/+/The actual price of the clothes was much higher than the man had expected./,Was the price of the clothes low?,N,,0,27,man,13,2,12,14,1,12,14,408,1563003363886,N,2156,1
220,2,21,filler,filler_18,,/+/The actual price of the clothes was much higher than the man had expected./,Was the price of the clothes low?,N,,0,27,had,14,2,13,14,1,13,14,528,1563003364414,N,2156,1
220,2,21,filler,filler_18,,/+/The actual price of the clothes was much higher than the man had expected./,Was the price of the clothes low?,N,,0,27,expected.,15,2,14,14,1,14,14,504,1563003364918,N,2156,1
220,2,22,target,target_9,C,/+/The famous scientist * who was * awarded an academic prize * expressed * his excitement./,Did the scientist award a prize？,N,,0,28,+,1,1,1,1,1,1,1,1543,1563003369118,Y,6276,0
220,2,22,target,target_9,C,/+/The famous scientist * who was * awarded an academic prize * expressed * his excitement./,Did the scientist award a prize？,N,,0,28,The,2,2,1,12,1,1,3,416,1563003369534,Y,6276,0
220,2,22,target,target_9,C,/+/The famous scientist * who was * awarded an academic prize * expressed * his excitement./,Did the scientist award a prize？,N,,0,28,famous,3,2,2,12,1,2,3,1440,1563003370974,Y,6276,0
220,2,22,target,target_9,C,/+/The famous scientist * who was * awarded an academic prize * expressed * his excitement./,Did the scientist award a prize？,N,,0,28,scientist,4,2,3,12,1,3,3,743,1563003371717,Y,6276,0
220,2,22,target,target_9,C,/+/The famous scientist * who was * awarded an academic prize * expressed * his excitement./,Did the scientist award a prize？,N,,0,28,who,5,2,4,12,2,1,2,946,1563003372663,Y,6276,0
220,2,22,target,target_9,C,/+/The famous scientist * who was * awarded an academic prize * expressed * his excitement./,Did the scientist award a prize？,N,,0,28,was,6,2,5,12,2,2,2,519,1563003373182,Y,6276,0
220,2,22,target,target_9,C,/+/The famous scientist * who was * awarded an academic prize * expressed * his excitement./,Did the scientist award a prize？,N,,0,28,awarded,7,2,6,12,3,1,4,1023,1563003374206,Y,6276,0
220,2,22,target,target_9,C,/+/The famous scientist * who was * awarded an academic prize * expressed * his excitement./,Did the scientist award a prize？,N,,0,28,an,8,2,7,12,3,2,4,423,1563003374630,Y,6276,0
220,2,22,target,target_9,C,/+/The famous scientist * who was * awarded an academic prize * expressed * his excitement./,Did the scientist award a prize？,N,,0,28,academic,9,2,8,12,3,3,4,784,1563003375414,Y,6276,0
220,2,22,target,target_9,C,/+/The famous scientist * who was * awarded an academic prize * expressed * his excitement./,Did the scientist award a prize？,N,,0,28,prize,10,2,9,12,3,4,4,400,1563003375814,Y,6276,0
220,2,22,target,target_9,C,/+/The famous scientist * who was * awarded an academic prize * expressed * his excitement./,Did the scientist award a prize？,N,,0,28,expressed,11,2,10,12,4,1,1,952,1563003376766,Y,6276,0
220,2,22,target,target_9,C,/+/The famous scientist * who was * awarded an academic prize * expressed * his excitement./,Did the scientist award a prize？,N,,0,28,his,12,2,11,12,5,1,2,560,1563003377326,Y,6276,0
220,2,22,target,target_9,C,/+/The famous scientist * who was * awarded an academic prize * expressed * his excitement./,Did the scientist award a prize？,N,,0,28,excitement.,13,2,12,12,5,2,2,2600,1563003379926,Y,6276,0
220,2,23,filler,filler_2,,/+/The small town near Taipei was famous for its rich seafood resources./,Was the small town famous?,Y,,0,29,+,1,1,1,1,1,1,1,1023,1563003387726,Y,3107,1
220,2,23,filler,filler_2,,/+/The small town near Taipei was famous for its rich seafood resources./,Was the small town famous?,Y,,0,29,The,2,2,1,12,1,1,12,432,1563003388158,Y,3107,1
220,2,23,filler,filler_2,,/+/The small town near Taipei was famous for its rich seafood resources./,Was the small town famous?,Y,,0,29,small,3,2,2,12,1,2,12,528,1563003388686,Y,3107,1
220,2,23,filler,filler_2,,/+/The small town near Taipei was famous for its rich seafood resources./,Was the small town famous?,Y,,0,29,town,4,2,3,12,1,3,12,976,1563003389662,Y,3107,1
220,2,23,filler,filler_2,,/+/The small town near Taipei was famous for its rich seafood resources./,Was the small town famous?,Y,,0,29,near,5,2,4,12,1,4,12,825,1563003390487,Y,3107,1
220,2,23,filler,filler_2,,/+/The small town near Taipei was famous for its rich seafood resources./,Was the small town famous?,Y,,0,29,Taipei,6,2,5,12,1,5,12,1031,1563003391518,Y,3107,1
220,2,23,filler,filler_2,,/+/The small town near Taipei was famous for its rich seafood resources./,Was the small town famous?,Y,,0,29,was,7,2,6,12,1,6,12,575,1563003392094,Y,3107,1
220,2,23,filler,filler_2,,/+/The small town near Taipei was famous for its rich seafood resources./,Was the small town famous?,Y,,0,29,famous,8,2,7,12,1,7,12,520,1563003392614,Y,3107,1
220,2,23,filler,filler_2,,/+/The small town near Taipei was famous for its rich seafood resources./,Was the small town famous?,Y,,0,29,for,9,2,8,12,1,8,12,367,1563003392982,Y,3107,1
220,2,23,filler,filler_2,,/+/The small town near Taipei was famous for its rich seafood resources./,Was the small town famous?,Y,,0,29,its,10,2,9,12,1,9,12,376,1563003393358,Y,3107,1
220,2,23,filler,filler_2,,/+/The small town near Taipei was famous for its rich seafood resources./,Was the small town famous?,Y,,0,29,rich,11,2,10,12,1,10,12,384,1563003393742,Y,3107,1
220,2,23,filler,filler_2,,/+/The small town near Taipei was famous for its rich seafood resources./,Was the small town famous?,Y,,0,29,seafood,12,2,11,12,1,11,12,520,1563003394262,Y,3107,1
220,2,23,filler,filler_2,,/+/The small town near Taipei was famous for its rich seafood resources./,Was the small town famous?,Y,,0,29,resources.,13,2,12,12,1,12,12,728,1563003394990,Y,3107,1
220,2,24,filler,filler_30,,/+/The pop star contributed four million to the Hope project yesterday./,Did the pop star donate money yesterday?,Y,,0,30,+,1,1,1,1,1,1,1,563,1563003399166,Y,2548,1
220,2,24,filler,filler_30,,/+/The pop star contributed four million to the Hope project yesterday./,Did the pop star donate money yesterday?,Y,,0,30,The,2,2,1,11,1,1,11,536,1563003399702,Y,2548,1
220,2,24,filler,filler_30,,/+/The pop star contributed four million to the Hope project yesterday./,Did the pop star donate money yesterday?,Y,,0,30,pop,3,2,2,11,1,2,11,624,1563003400326,Y,2548,1
220,2,24,filler,filler_30,,/+/The pop star contributed four million to the Hope project yesterday./,Did the pop star donate money yesterday?,Y,,0,30,star,4,2,3,11,1,3,11,488,1563003400814,Y,2548,1
220,2,24,filler,filler_30,,/+/The pop star contributed four million to the Hope project yesterday./,Did the pop star donate money yesterday?,Y,,0,30,contributed,5,2,4,11,1,4,11,968,1563003401782,Y,2548,1
220,2,24,filler,filler_30,,/+/The pop star contributed four million to the Hope project yesterday./,Did the pop star donate money yesterday?,Y,,0,30,four,6,2,5,11,1,5,11,672,1563003402454,Y,2548,1
220,2,24,filler,filler_30,,/+/The pop star contributed four million to the Hope project yesterday./,Did the pop star donate money yesterday?,Y,,0,30,million,7,2,6,11,1,6,11,624,1563003403078,Y,2548,1
220,2,24,filler,filler_30,,/+/The pop star contributed four million to the Hope project yesterday./,Did the pop star donate money yesterday?,Y,,0,30,to,8,2,7,11,1,7,11,600,1563003403678,Y,2548,1
220,2,24,filler,filler_30,,/+/The pop star contributed four million to the Hope project yesterday./,Did the pop star donate money yesterday?,Y,,0,30,the,9,2,8,11,1,8,11,472,1563003404150,Y,2548,1
220,2,24,filler,filler_30,,/+/The pop star contributed four million to the Hope project yesterday./,Did the pop star donate money yesterday?,Y,,0,30,Hope,10,2,9,11,1,9,11,416,1563003404566,Y,2548,1
220,2,24,filler,filler_30,,/+/The pop star contributed four million to the Hope project yesterday./,Did the pop star donate money yesterday?,Y,,0,30,project,11,2,10,11,1,10,11,744,1563003405310,Y,2548,1
220,2,24,filler,filler_30,,/+/The pop star contributed four million to the Hope project yesterday./,Did the pop star donate money yesterday?,Y,,0,30,yesterday.,12,2,11,11,1,11,11,616,1563003405926,Y,2548,1
220,2,25,target,target_10,G,/+/The skilled hunters * stopped killing wild animals * ended up * in prison./,Did somebody stop the hunters from killing?,Y,,0,31,+,1,1,1,1,1,1,1,1159,1563003410134,N,6709,0
220,2,25,target,target_10,G,/+/The skilled hunters * stopped killing wild animals * ended up * in prison./,Did somebody stop the hunters from killing?,Y,,0,31,The,2,2,1,11,1,1,3,600,1563003410735,N,6709,0
220,2,25,target,target_10,G,/+/The skilled hunters * stopped killing wild animals * ended up * in prison./,Did somebody stop the hunters from killing?,Y,,0,31,skilled,3,2,2,11,1,2,3,1823,1563003412558,N,6709,0
220,2,25,target,target_10,G,/+/The skilled hunters * stopped killing wild animals * ended up * in prison./,Did somebody stop the hunters from killing?,Y,,0,31,hunters,4,2,3,11,1,3,3,424,1563003412982,N,6709,0
220,2,25,target,target_10,G,/+/The skilled hunters * stopped killing wild animals * ended up * in prison./,Did somebody stop the hunters from killing?,Y,,0,31,stopped,5,2,4,11,2,1,4,1160,1563003414142,N,6709,0
220,2,25,target,target_10,G,/+/The skilled hunters * stopped killing wild animals * ended up * in prison./,Did somebody stop the hunters from killing?,Y,,0,31,killing,6,2,5,11,2,2,4,616,1563003414758,N,6709,0
220,2,25,target,target_10,G,/+/The skilled hunters * stopped killing wild animals * ended up * in prison./,Did somebody stop the hunters from killing?,Y,,0,31,wild,7,2,6,11,2,3,4,512,1563003415270,N,6709,0
220,2,25,target,target_10,G,/+/The skilled hunters * stopped killing wild animals * ended up * in prison./,Did somebody stop the hunters from killing?,Y,,0,31,animals,8,2,7,11,2,4,4,448,1563003415718,N,6709,0
220,2,25,target,target_10,G,/+/The skilled hunters * stopped killing wild animals * ended up * in prison./,Did somebody stop the hunters from killing?,Y,,0,31,ended,9,2,8,11,3,1,2,784,1563003416502,N,6709,0
220,2,25,target,target_10,G,/+/The skilled hunters * stopped killing wild animals * ended up * in prison./,Did somebody stop the hunters from killing?,Y,,0,31,up,10,2,9,11,3,2,2,504,1563003417006,N,6709,0
220,2,25,target,target_10,G,/+/The skilled hunters * stopped killing wild animals * ended up * in prison./,Did somebody stop the hunters from killing?,Y,,0,31,in,11,2,10,11,4,1,2,472,1563003417478,N,6709,0
220,2,25,target,target_10,G,/+/The skilled hunters * stopped killing wild animals * ended up * in prison./,Did somebody stop the hunters from killing?,Y,,0,31,prison.,12,2,11,11,4,2,2,601,1563003418079,N,6709,0
220,2,26,filler,filler_21,,/+/The employees were willing to work in a nice environment./,Did the employees want to work in a poor environment?,N,,0,32,+,1,1,1,1,1,1,1,1255,1563003426543,N,2468,1
220,2,26,filler,filler_21,,/+/The employees were willing to work in a nice environment./,Did the employees want to work in a poor environment?,N,,0,32,The,2,2,1,10,1,1,10,1456,1563003427999,N,2468,1
220,2,26,filler,filler_21,,/+/The employees were willing to work in a nice environment./,Did the employees want to work in a poor environment?,N,,0,32,employees,3,2,2,10,1,2,10,1439,1563003429439,N,2468,1
220,2,26,filler,filler_21,,/+/The employees were willing to work in a nice environment./,Did the employees want to work in a poor environment?,N,,0,32,were,4,2,3,10,1,3,10,480,1563003429919,N,2468,1
220,2,26,filler,filler_21,,/+/The employees were willing to work in a nice environment./,Did the employees want to work in a poor environment?,N,,0,32,willing,5,2,4,10,1,4,10,672,1563003430591,N,2468,1
220,2,26,filler,filler_21,,/+/The employees were willing to work in a nice environment./,Did the employees want to work in a poor environment?,N,,0,32,to,6,2,5,10,1,5,10,480,1563003431071,N,2468,1
220,2,26,filler,filler_21,,/+/The employees were willing to work in a nice environment./,Did the employees want to work in a poor environment?,N,,0,32,work,7,2,6,10,1,6,10,464,1563003431535,N,2468,1
220,2,26,filler,filler_21,,/+/The employees were willing to work in a nice environment./,Did the employees want to work in a poor environment?,N,,0,32,in,8,2,7,10,1,7,10,384,1563003431919,N,2468,1
220,2,26,filler,filler_21,,/+/The employees were willing to work in a nice environment./,Did the employees want to work in a poor environment?,N,,0,32,a,9,2,8,10,1,8,10,360,1563003432279,N,2468,1
220,2,26,filler,filler_21,,/+/The employees were willing to work in a nice environment./,Did the employees want to work in a poor environment?,N,,0,32,nice,10,2,9,10,1,9,10,520,1563003432799,N,2468,1
220,2,26,filler,filler_21,,/+/The employees were willing to work in a nice environment./,Did the employees want to work in a poor environment?,N,,0,32,environment.,11,2,10,10,1,10,10,448,1563003433247,N,2468,1
220,2,27,filler,filler_20,,/+/The woman's pretty dress was burned by those naughty boys./,Was the dress burned by the boys?,Y,,0,33,+,1,1,1,1,1,1,1,1607,1563003437823,Y,3188,1
220,2,27,filler,filler_20,,/+/The woman's pretty dress was burned by those naughty boys./,Was the dress burned by the boys?,Y,,0,33,The,2,2,1,10,1,1,10,432,1563003438255,Y,3188,1
220,2,27,filler,filler_20,,/+/The woman's pretty dress was burned by those naughty boys./,Was the dress burned by the boys?,Y,,0,33,woman's,3,2,2,10,1,2,10,1688,1563003439943,Y,3188,1
220,2,27,filler,filler_20,,/+/The woman's pretty dress was burned by those naughty boys./,Was the dress burned by the boys?,Y,,0,33,pretty,4,2,3,10,1,3,10,1008,1563003440951,Y,3188,1
220,2,27,filler,filler_20,,/+/The woman's pretty dress was burned by those naughty boys./,Was the dress burned by the boys?,Y,,0,33,dress,5,2,4,10,1,4,10,728,1563003441679,Y,3188,1
220,2,27,filler,filler_20,,/+/The woman's pretty dress was burned by those naughty boys./,Was the dress burned by the boys?,Y,,0,33,was,6,2,5,10,1,5,10,368,1563003442047,Y,3188,1
220,2,27,filler,filler_20,,/+/The woman's pretty dress was burned by those naughty boys./,Was the dress burned by the boys?,Y,,0,33,burned,7,2,6,10,1,6,10,720,1563003442767,Y,3188,1
220,2,27,filler,filler_20,,/+/The woman's pretty dress was burned by those naughty boys./,Was the dress burned by the boys?,Y,,0,33,by,8,2,7,10,1,7,10,440,1563003443207,Y,3188,1
220,2,27,filler,filler_20,,/+/The woman's pretty dress was burned by those naughty boys./,Was the dress burned by the boys?,Y,,0,33,those,9,2,8,10,1,8,10,399,1563003443607,Y,3188,1
220,2,27,filler,filler_20,,/+/The woman's pretty dress was burned by those naughty boys./,Was the dress burned by the boys?,Y,,0,33,naughty,10,2,9,10,1,9,10,775,1563003444383,Y,3188,1
220,2,27,filler,filler_20,,/+/The woman's pretty dress was burned by those naughty boys./,Was the dress burned by the boys?,Y,,0,33,boys.,11,2,10,10,1,10,10,447,1563003444831,Y,3188,1
220,2,28,filler,filler_36,,/+/The biology expert argued that wild animals should be protected now./,Did the biology expert argue to pretect wild animals?,Y,,0,34,+,1,1,1,1,1,1,1,1031,1563003449553,Y,6421,1
220,2,28,filler,filler_36,,/+/The biology expert argued that wild animals should be protected now./,Did the biology expert argue to pretect wild animals?,Y,,0,34,The,2,2,1,11,1,1,11,542,1563003450095,Y,6421,1
220,2,28,filler,filler_36,,/+/The biology expert argued that wild animals should be protected now./,Did the biology expert argue to pretect wild animals?,Y,,0,34,biology,3,2,2,11,1,2,11,992,1563003451087,Y,6421,1
220,2,28,filler,filler_36,,/+/The biology expert argued that wild animals should be protected now./,Did the biology expert argue to pretect wild animals?,Y,,0,34,expert,4,2,3,11,1,3,11,744,1563003451831,Y,6421,1
220,2,28,filler,filler_36,,/+/The biology expert argued that wild animals should be protected now./,Did the biology expert argue to pretect wild animals?,Y,,0,34,argued,5,2,4,11,1,4,11,880,1563003452711,Y,6421,1
220,2,28,filler,filler_36,,/+/The biology expert argued that wild animals should be protected now./,Did the biology expert argue to pretect wild animals?,Y,,0,34,that,6,2,5,11,1,5,11,528,1563003453239,Y,6421,1
220,2,28,filler,filler_36,,/+/The biology expert argued that wild animals should be protected now./,Did the biology expert argue to pretect wild animals?,Y,,0,34,wild,7,2,6,11,1,6,11,408,1563003453647,Y,6421,1
220,2,28,filler,filler_36,,/+/The biology expert argued that wild animals should be protected now./,Did the biology expert argue to pretect wild animals?,Y,,0,34,animals,8,2,7,11,1,7,11,528,1563003454175,Y,6421,1
220,2,28,filler,filler_36,,/+/The biology expert argued that wild animals should be protected now./,Did the biology expert argue to pretect wild animals?,Y,,0,34,should,9,2,8,11,1,8,11,504,1563003454679,Y,6421,1
220,2,28,filler,filler_36,,/+/The biology expert argued that wild animals should be protected now./,Did the biology expert argue to pretect wild animals?,Y,,0,34,be,10,2,9,11,1,9,11,488,1563003455167,Y,6421,1
220,2,28,filler,filler_36,,/+/The biology expert argued that wild animals should be protected now./,Did the biology expert argue to pretect wild animals?,Y,,0,34,protected,11,2,10,11,1,10,11,952,1563003456119,Y,6421,1
220,2,28,filler,filler_36,,/+/The biology expert argued that wild animals should be protected now./,Did the biology expert argue to pretect wild animals?,Y,,0,34,now.,12,2,11,11,1,11,11,408,1563003456527,Y,6421,1
220,2,29,target,target_18,G,/+/The young repairman * paid for the bill * said * thanks to the hostess./,Did the repairman pay for the bill?,N,,0,35,+,1,1,1,1,1,1,1,992,1563003464440,Y,2796,0
220,2,29,target,target_18,G,/+/The young repairman * paid for the bill * said * thanks to the hostess./,Did the repairman pay for the bill?,N,,0,35,The,2,2,1,12,1,1,3,455,1563003464895,Y,2796,0
220,2,29,target,target_18,G,/+/The young repairman * paid for the bill * said * thanks to the hostess./,Did the repairman pay for the bill?,N,,0,35,young,3,2,2,12,1,2,3,1000,1563003465895,Y,2796,0
220,2,29,target,target_18,G,/+/The young repairman * paid for the bill * said * thanks to the hostess./,Did the repairman pay for the bill?,N,,0,35,repairman,4,2,3,12,1,3,3,1744,1563003467639,Y,2796,0
220,2,29,target,target_18,G,/+/The young repairman * paid for the bill * said * thanks to the hostess./,Did the repairman pay for the bill?,N,,0,35,paid,5,2,4,12,2,1,4,3216,1563003470855,Y,2796,0
220,2,29,target,target_18,G,/+/The young repairman * paid for the bill * said * thanks to the hostess./,Did the repairman pay for the bill?,N,,0,35,for,6,2,5,12,2,2,4,1048,1563003471903,Y,2796,0
220,2,29,target,target_18,G,/+/The young repairman * paid for the bill * said * thanks to the hostess./,Did the repairman pay for the bill?,N,,0,35,the,7,2,6,12,2,3,4,560,1563003472463,Y,2796,0
220,2,29,target,target_18,G,/+/The young repairman * paid for the bill * said * thanks to the hostess./,Did the repairman pay for the bill?,N,,0,35,bill,8,2,7,12,2,4,4,560,1563003473023,Y,2796,0
220,2,29,target,target_18,G,/+/The young repairman * paid for the bill * said * thanks to the hostess./,Did the repairman pay for the bill?,N,,0,35,said,9,2,8,12,3,1,1,480,1563003473503,Y,2796,0
220,2,29,target,target_18,G,/+/The young repairman * paid for the bill * said * thanks to the hostess./,Did the repairman pay for the bill?,N,,0,35,thanks,10,2,9,12,4,1,4,520,1563003474023,Y,2796,0
220,2,29,target,target_18,G,/+/The young repairman * paid for the bill * said * thanks to the hostess./,Did the repairman pay for the bill?,N,,0,35,to,11,2,10,12,4,2,4,392,1563003474415,Y,2796,0
220,2,29,target,target_18,G,/+/The young repairman * paid for the bill * said * thanks to the hostess./,Did the repairman pay for the bill?,N,,0,35,the,12,2,11,12,4,3,4,360,1563003474775,Y,2796,0
220,2,29,target,target_18,G,/+/The young repairman * paid for the bill * said * thanks to the hostess./,Did the repairman pay for the bill?,N,,0,35,hostess.,13,2,12,12,4,4,4,728,1563003475503,Y,2796,0
220,2,30,filler,filler_33,,/+/The old fireman did not believe that his wife was capable of making decisions./,Did the fireman believe his wife in making decisions?,N,,0,36,+,1,1,1,1,1,1,1,1639,1563003480438,N,2412,1
220,2,30,filler,filler_33,,/+/The old fireman did not believe that his wife was capable of making decisions./,Did the fireman believe his wife in making decisions?,N,,0,36,The,2,2,1,14,1,1,14,479,1563003480918,N,2412,1
220,2,30,filler,filler_33,,/+/The old fireman did not believe that his wife was capable of making decisions./,Did the fireman believe his wife in making decisions?,N,,0,36,old,3,2,2,14,1,2,14,583,1563003481502,N,2412,1
220,2,30,filler,filler_33,,/+/The old fireman did not believe that his wife was capable of making decisions./,Did the fireman believe his wife in making decisions?,N,,0,36,fireman,4,2,3,14,1,3,14,799,1563003482302,N,2412,1
220,2,30,filler,filler_33,,/+/The old fireman did not believe that his wife was capable of making decisions./,Did the fireman believe his wife in making decisions?,N,,0,36,did,5,2,4,14,1,4,14,448,1563003482750,N,2412,1
220,2,30,filler,filler_33,,/+/The old fireman did not believe that his wife was capable of making decisions./,Did the fireman believe his wife in making decisions?,N,,0,36,not,6,2,5,14,1,5,14,544,1563003483294,N,2412,1
220,2,30,filler,filler_33,,/+/The old fireman did not believe that his wife was capable of making decisions./,Did the fireman believe his wife in making decisions?,N,,0,36,believe,7,2,6,14,1,6,14,720,1563003484014,N,2412,1
220,2,30,filler,filler_33,,/+/The old fireman did not believe that his wife was capable of making decisions./,Did the fireman believe his wife in making decisions?,N,,0,36,that,8,2,7,14,1,7,14,448,1563003484462,N,2412,1
220,2,30,filler,filler_33,,/+/The old fireman did not believe that his wife was capable of making decisions./,Did the fireman believe his wife in making decisions?,N,,0,36,his,9,2,8,14,1,8,14,504,1563003484966,N,2412,1
220,2,30,filler,filler_33,,/+/The old fireman did not believe that his wife was capable of making decisions./,Did the fireman believe his wife in making decisions?,N,,0,36,wife,10,2,9,14,1,9,14,352,1563003485318,N,2412,1
220,2,30,filler,filler_33,,/+/The old fireman did not believe that his wife was capable of making decisions./,Did the fireman believe his wife in making decisions?,N,,0,36,was,11,2,10,14,1,10,14,384,1563003485702,N,2412,1
220,2,30,filler,filler_33,,/+/The old fireman did not believe that his wife was capable of making decisions./,Did the fireman believe his wife in making decisions?,N,,0,36,capable,12,2,11,14,1,11,14,816,1563003486518,N,2412,1
220,2,30,filler,filler_33,,/+/The old fireman did not believe that his wife was capable of making decisions./,Did the fireman believe his wife in making decisions?,N,,0,36,of,13,2,12,14,1,12,14,368,1563003486886,N,2412,1
220,2,30,filler,filler_33,,/+/The old fireman did not believe that his wife was capable of making decisions./,Did the fireman believe his wife in making decisions?,N,,0,36,making,14,2,13,14,1,13,14,527,1563003487413,N,2412,1
220,2,30,filler,filler_33,,/+/The old fireman did not believe that his wife was capable of making decisions./,Did the fireman believe his wife in making decisions?,N,,0,36,decisions.,15,2,14,14,1,14,14,991,1563003488405,N,2412,1
220,2,31,target,target_12,C,/+/The new manager * who was * promised a better office * worked * much harder./,Did someone promise the manager an office?,Y,,0,37,+,1,1,1,1,1,1,1,847,1563003492166,Y,5420,1
220,2,31,target,target_12,C,/+/The new manager * who was * promised a better office * worked * much harder./,Did someone promise the manager an office?,Y,,0,37,The,2,2,1,12,1,1,3,808,1563003492974,Y,5420,1
220,2,31,target,target_12,C,/+/The new manager * who was * promised a better office * worked * much harder./,Did someone promise the manager an office?,Y,,0,37,new,3,2,2,12,1,2,3,608,1563003493582,Y,5420,1
220,2,31,target,target_12,C,/+/The new manager * who was * promised a better office * worked * much harder./,Did someone promise the manager an office?,Y,,0,37,manager,4,2,3,12,1,3,3,1257,1563003494839,Y,5420,1
220,2,31,target,target_12,C,/+/The new manager * who was * promised a better office * worked * much harder./,Did someone promise the manager an office?,Y,,0,37,who,5,2,4,12,2,1,2,599,1563003495438,Y,5420,1
220,2,31,target,target_12,C,/+/The new manager * who was * promised a better office * worked * much harder./,Did someone promise the manager an office?,Y,,0,37,was,6,2,5,12,2,2,2,616,1563003496055,Y,5420,1
220,2,31,target,target_12,C,/+/The new manager * who was * promised a better office * worked * much harder./,Did someone promise the manager an office?,Y,,0,37,promised,7,2,6,12,3,1,4,3399,1563003499454,Y,5420,1
220,2,31,target,target_12,C,/+/The new manager * who was * promised a better office * worked * much harder./,Did someone promise the manager an office?,Y,,0,37,a,8,2,7,12,3,2,4,399,1563003499854,Y,5420,1
220,2,31,target,target_12,C,/+/The new manager * who was * promised a better office * worked * much harder./,Did someone promise the manager an office?,Y,,0,37,better,9,2,8,12,3,3,4,416,1563003500270,Y,5420,1
220,2,31,target,target_12,C,/+/The new manager * who was * promised a better office * worked * much harder./,Did someone promise the manager an office?,Y,,0,37,office,10,2,9,12,3,4,4,368,1563003500638,Y,5420,1
220,2,31,target,target_12,C,/+/The new manager * who was * promised a better office * worked * much harder./,Did someone promise the manager an office?,Y,,0,37,worked,11,2,10,12,4,1,1,496,1563003501134,Y,5420,1
220,2,31,target,target_12,C,/+/The new manager * who was * promised a better office * worked * much harder./,Did someone promise the manager an office?,Y,,0,37,much,12,2,11,12,5,1,2,456,1563003501590,Y,5420,1
220,2,31,target,target_12,C,/+/The new manager * who was * promised a better office * worked * much harder./,Did someone promise the manager an office?,Y,,0,37,harder.,13,2,12,12,5,2,2,528,1563003502118,Y,5420,1
220,2,32,filler,filler_26,,/+/The magazine was expanded greatly in the number of pages./,Was the magazine expanded?,Y,,0,38,+,1,1,1,1,1,1,1,1670,1563003509709,Y,1659,1
220,2,32,filler,filler_26,,/+/The magazine was expanded greatly in the number of pages./,Was the magazine expanded?,Y,,0,38,The,2,2,1,10,1,1,10,497,1563003510206,Y,1659,1
220,2,32,filler,filler_26,,/+/The magazine was expanded greatly in the number of pages./,Was the magazine expanded?,Y,,0,38,magazine,3,2,2,10,1,2,10,5001,1563003515207,Y,1659,1
220,2,32,filler,filler_26,,/+/The magazine was expanded greatly in the number of pages./,Was the magazine expanded?,Y,,0,38,was,4,2,3,10,1,3,10,479,1563003515686,Y,1659,1
220,2,32,filler,filler_26,,/+/The magazine was expanded greatly in the number of pages./,Was the magazine expanded?,Y,,0,38,expanded,5,2,4,10,1,4,10,1183,1563003516870,Y,1659,1
220,2,32,filler,filler_26,,/+/The magazine was expanded greatly in the number of pages./,Was the magazine expanded?,Y,,0,38,greatly,6,2,5,10,1,5,10,672,1563003517542,Y,1659,1
220,2,32,filler,filler_26,,/+/The magazine was expanded greatly in the number of pages./,Was the magazine expanded?,Y,,0,38,in,7,2,6,10,1,6,10,448,1563003517990,Y,1659,1
220,2,32,filler,filler_26,,/+/The magazine was expanded greatly in the number of pages./,Was the magazine expanded?,Y,,0,38,the,8,2,7,10,1,7,10,384,1563003518374,Y,1659,1
220,2,32,filler,filler_26,,/+/The magazine was expanded greatly in the number of pages./,Was the magazine expanded?,Y,,0,38,number,9,2,8,10,1,8,10,480,1563003518854,Y,1659,1
220,2,32,filler,filler_26,,/+/The magazine was expanded greatly in the number of pages./,Was the magazine expanded?,Y,,0,38,of,10,2,9,10,1,9,10,344,1563003519198,Y,1659,1
220,2,32,filler,filler_26,,/+/The magazine was expanded greatly in the number of pages./,Was the magazine expanded?,Y,,0,38,pages.,11,2,10,10,1,10,10,472,1563003519670,Y,1659,1
220,2,33,filler,filler_16,,/+/The student with blue eyes made many mistakes of all the class./,Did the student with blue eyes never make mistakes?,N,,0,39,+,1,1,1,1,1,1,1,738,1563003522569,N,2334,1
220,2,33,filler,filler_16,,/+/The student with blue eyes made many mistakes of all the class./,Did the student with blue eyes never make mistakes?,N,,0,39,The,2,2,1,12,1,1,12,461,1563003523030,N,2334,1
220,2,33,filler,filler_16,,/+/The student with blue eyes made many mistakes of all the class./,Did the student with blue eyes never make mistakes?,N,,0,39,student,3,2,2,12,1,2,12,504,1563003523534,N,2334,1
220,2,33,filler,filler_16,,/+/The student with blue eyes made many mistakes of all the class./,Did the student with blue eyes never make mistakes?,N,,0,39,with,4,2,3,12,1,3,12,568,1563003524102,N,2334,1
220,2,33,filler,filler_16,,/+/The student with blue eyes made many mistakes of all the class./,Did the student with blue eyes never make mistakes?,N,,0,39,blue,5,2,4,12,1,4,12,400,1563003524502,N,2334,1
220,2,33,filler,filler_16,,/+/The student with blue eyes made many mistakes of all the class./,Did the student with blue eyes never make mistakes?,N,,0,39,eyes,6,2,5,12,1,5,12,376,1563003524878,N,2334,1
220,2,33,filler,filler_16,,/+/The student with blue eyes made many mistakes of all the class./,Did the student with blue eyes never make mistakes?,N,,0,39,made,7,2,6,12,1,6,12,576,1563003525454,N,2334,1
220,2,33,filler,filler_16,,/+/The student with blue eyes made many mistakes of all the class./,Did the student with blue eyes never make mistakes?,N,,0,39,many,8,2,7,12,1,7,12,376,1563003525830,N,2334,1
220,2,33,filler,filler_16,,/+/The student with blue eyes made many mistakes of all the class./,Did the student with blue eyes never make mistakes?,N,,0,39,mistakes,9,2,8,12,1,8,12,560,1563003526390,N,2334,1
220,2,33,filler,filler_16,,/+/The student with blue eyes made many mistakes of all the class./,Did the student with blue eyes never make mistakes?,N,,0,39,of,10,2,9,12,1,9,12,392,1563003526782,N,2334,1
220,2,33,filler,filler_16,,/+/The student with blue eyes made many mistakes of all the class./,Did the student with blue eyes never make mistakes?,N,,0,39,all,11,2,10,12,1,10,12,344,1563003527126,N,2334,1
220,2,33,filler,filler_16,,/+/The student with blue eyes made many mistakes of all the class./,Did the student with blue eyes never make mistakes?,N,,0,39,the,12,2,11,12,1,11,12,376,1563003527502,N,2334,1
220,2,33,filler,filler_16,,/+/The student with blue eyes made many mistakes of all the class./,Did the student with blue eyes never make mistakes?,N,,0,39,class.,13,2,12,12,1,12,12,455,1563003527957,N,2334,1
220,2,34,target,target_13,C,/+/An American teenager * who was * refused to enter the bar * burst into * anger./,Did the teenager refuse to enter the bar?,N,,0,40,+,1,1,1,1,1,1,1,680,1563003531471,N,6156,1
220,2,34,target,target_13,C,/+/An American teenager * who was * refused to enter the bar * burst into * anger./,Did the teenager refuse to enter the bar?,N,,0,40,An,2,2,1,13,1,1,3,696,1563003532167,N,6156,1
220,2,34,target,target_13,C,/+/An American teenager * who was * refused to enter the bar * burst into * anger./,Did the teenager refuse to enter the bar?,N,,0,40,American,3,2,2,13,1,2,3,919,1563003533086,N,6156,1
220,2,34,target,target_13,C,/+/An American teenager * who was * refused to enter the bar * burst into * anger./,Did the teenager refuse to enter the bar?,N,,0,40,teenager,4,2,3,13,1,3,3,664,1563003533750,N,6156,1
220,2,34,target,target_13,C,/+/An American teenager * who was * refused to enter the bar * burst into * anger./,Did the teenager refuse to enter the bar?,N,,0,40,who,5,2,4,13,2,1,2,519,1563003534270,N,6156,1
220,2,34,target,target_13,C,/+/An American teenager * who was * refused to enter the bar * burst into * anger./,Did the teenager refuse to enter the bar?,N,,0,40,was,6,2,5,13,2,2,2,504,1563003534775,N,6156,1
220,2,34,target,target_13,C,/+/An American teenager * who was * refused to enter the bar * burst into * anger./,Did the teenager refuse to enter the bar?,N,,0,40,refused,7,2,6,13,3,1,5,559,1563003535334,N,6156,1
220,2,34,target,target_13,C,/+/An American teenager * who was * refused to enter the bar * burst into * anger./,Did the teenager refuse to enter the bar?,N,,0,40,to,8,2,7,13,3,2,5,1087,1563003536422,N,6156,1
220,2,34,target,target_13,C,/+/An American teenager * who was * refused to enter the bar * burst into * anger./,Did the teenager refuse to enter the bar?,N,,0,40,enter,9,2,8,13,3,3,5,360,1563003536782,N,6156,1
220,2,34,target,target_13,C,/+/An American teenager * who was * refused to enter the bar * burst into * anger./,Did the teenager refuse to enter the bar?,N,,0,40,the,10,2,9,13,3,4,5,440,1563003537222,N,6156,1
220,2,34,target,target_13,C,/+/An American teenager * who was * refused to enter the bar * burst into * anger./,Did the teenager refuse to enter the bar?,N,,0,40,bar,11,2,10,13,3,5,5,368,1563003537590,N,6156,1
220,2,34,target,target_13,C,/+/An American teenager * who was * refused to enter the bar * burst into * anger./,Did the teenager refuse to enter the bar?,N,,0,40,burst,12,2,11,13,4,1,2,528,1563003538118,N,6156,1
220,2,34,target,target_13,C,/+/An American teenager * who was * refused to enter the bar * burst into * anger./,Did the teenager refuse to enter the bar?,N,,0,40,into,13,2,12,13,4,2,2,689,1563003538807,N,6156,1
220,2,34,target,target_13,C,/+/An American teenager * who was * refused to enter the bar * burst into * anger./,Did the teenager refuse to enter the bar?,N,,0,40,anger.,14,2,13,13,5,1,1,864,1563003539671,N,6156,1
220,2,35,filler,filler_13,,/+/The strange man on the subway sold fake watches to different passengers./,Did the strange man sell fake watches?,Y,,0,41,+,1,1,1,1,1,1,1,768,1563003547095,Y,2836,1
