dat_Subject,list,display_order,type,id,con,fab_stimulus,fab_question,fab_key,fab_instruction,fab_feedback,dat_Trial,dat_Window,dat_WindowSequence,dat_LoopNumber,dat_LoopPosition,dat_LoopSum,dat_AreaNumber,dat_AreaPosition,dat_AreaSum,dat_ReactionTime,dat_Time,dat_Ans,dat_AnsReactionTime,dat_Accuracy
210,2,p1,practice,practice_1,,/+/The patient listened to the doctor's advice after he felt hopeless./,Did the patient follow the doctor?,Y,ins.jpg,1,1,+,1,1,1,1,1,1,1,15008,1562924046411,N,12230,0
210,2,p1,practice,practice_1,,/+/The patient listened to the doctor's advice after he felt hopeless./,Did the patient follow the doctor?,Y,ins.jpg,1,1,The,2,2,1,11,1,1,11,1783,1562924048194,N,12230,0
210,2,p1,practice,practice_1,,/+/The patient listened to the doctor's advice after he felt hopeless./,Did the patient follow the doctor?,Y,ins.jpg,1,1,patient,3,2,2,11,1,2,11,2543,1562924050738,N,12230,0
210,2,p1,practice,practice_1,,/+/The patient listened to the doctor's advice after he felt hopeless./,Did the patient follow the doctor?,Y,ins.jpg,1,1,listened,4,2,3,11,1,3,11,2192,1562924052930,N,12230,0
210,2,p1,practice,practice_1,,/+/The patient listened to the doctor's advice after he felt hopeless./,Did the patient follow the doctor?,Y,ins.jpg,1,1,to,5,2,4,11,1,4,11,1568,1562924054498,N,12230,0
210,2,p1,practice,practice_1,,/+/The patient listened to the doctor's advice after he felt hopeless./,Did the patient follow the doctor?,Y,ins.jpg,1,1,the,6,2,5,11,1,5,11,1072,1562924055570,N,12230,0
210,2,p1,practice,practice_1,,/+/The patient listened to the doctor's advice after he felt hopeless./,Did the patient follow the doctor?,Y,ins.jpg,1,1,doctor's,7,2,6,11,1,6,11,1344,1562924056914,N,12230,0
210,2,p1,practice,practice_1,,/+/The patient listened to the doctor's advice after he felt hopeless./,Did the patient follow the doctor?,Y,ins.jpg,1,1,advice,8,2,7,11,1,7,11,1448,1562924058362,N,12230,0
210,2,p1,practice,practice_1,,/+/The patient listened to the doctor's advice after he felt hopeless./,Did the patient follow the doctor?,Y,ins.jpg,1,1,after,9,2,8,11,1,8,11,832,1562924059194,N,12230,0
210,2,p1,practice,practice_1,,/+/The patient listened to the doctor's advice after he felt hopeless./,Did the patient follow the doctor?,Y,ins.jpg,1,1,he,10,2,9,11,1,9,11,520,1562924059714,N,12230,0
210,2,p1,practice,practice_1,,/+/The patient listened to the doctor's advice after he felt hopeless./,Did the patient follow the doctor?,Y,ins.jpg,1,1,felt,11,2,10,11,1,10,11,976,1562924060690,N,12230,0
210,2,p1,practice,practice_1,,/+/The patient listened to the doctor's advice after he felt hopeless./,Did the patient follow the doctor?,Y,ins.jpg,1,1,hopeless.,12,2,11,11,1,11,11,1544,1562924062234,N,12230,0
210,2,p2,practice,practice_2,,/+/The visitors knew little about how the painting was created./,Did the visitors know how the painting was created?,N,,1,2,+,1,1,1,1,1,1,1,717,1562924102190,N,5370,1
210,2,p2,practice,practice_2,,/+/The visitors knew little about how the painting was created./,Did the visitors know how the painting was created?,N,,1,2,The,2,2,1,10,1,1,10,552,1562924102742,N,5370,1
210,2,p2,practice,practice_2,,/+/The visitors knew little about how the painting was created./,Did the visitors know how the painting was created?,N,,1,2,visitors,3,2,2,10,1,2,10,1016,1562924103758,N,5370,1
210,2,p2,practice,practice_2,,/+/The visitors knew little about how the painting was created./,Did the visitors know how the painting was created?,N,,1,2,knew,4,2,3,10,1,3,10,768,1562924104526,N,5370,1
210,2,p2,practice,practice_2,,/+/The visitors knew little about how the painting was created./,Did the visitors know how the painting was created?,N,,1,2,little,5,2,4,10,1,4,10,879,1562924105405,N,5370,1
210,2,p2,practice,practice_2,,/+/The visitors knew little about how the painting was created./,Did the visitors know how the painting was created?,N,,1,2,about,6,2,5,10,1,5,10,961,1562924106366,N,5370,1
210,2,p2,practice,practice_2,,/+/The visitors knew little about how the painting was created./,Did the visitors know how the painting was created?,N,,1,2,how,7,2,6,10,1,6,10,632,1562924106998,N,5370,1
210,2,p2,practice,practice_2,,/+/The visitors knew little about how the painting was created./,Did the visitors know how the painting was created?,N,,1,2,the,8,2,7,10,1,7,10,416,1562924107414,N,5370,1
210,2,p2,practice,practice_2,,/+/The visitors knew little about how the painting was created./,Did the visitors know how the painting was created?,N,,1,2,painting,9,2,8,10,1,8,10,1136,1562924108550,N,5370,1
210,2,p2,practice,practice_2,,/+/The visitors knew little about how the painting was created./,Did the visitors know how the painting was created?,N,,1,2,was,10,2,9,10,1,9,10,528,1562924109078,N,5370,1
210,2,p2,practice,practice_2,,/+/The visitors knew little about how the painting was created./,Did the visitors know how the painting was created?,N,,1,2,created.,11,2,10,10,1,10,10,1087,1562924110165,N,5370,1
210,2,p3,practice,practice_3,,/+/The old lady lived further away from the city center./,Did the old lady live in the city center?,N,,1,3,+,1,1,1,1,1,1,1,2463,1562924118502,N,3299,1
210,2,p3,practice,practice_3,,/+/The old lady lived further away from the city center./,Did the old lady live in the city center?,N,,1,3,The,2,2,1,10,1,1,10,344,1562924118846,N,3299,1
210,2,p3,practice,practice_3,,/+/The old lady lived further away from the city center./,Did the old lady live in the city center?,N,,1,3,old,3,2,2,10,1,2,10,3951,1562924122797,N,3299,1
210,2,p3,practice,practice_3,,/+/The old lady lived further away from the city center./,Did the old lady live in the city center?,N,,1,3,The,4,2,1,10,1,1,10,807,1562924123605,N,3299,1
210,2,p3,practice,practice_3,,/+/The old lady lived further away from the city center./,Did the old lady live in the city center?,N,,1,3,old,5,2,2,10,1,2,10,343,1562924123949,N,3299,1
210,2,p3,practice,practice_3,,/+/The old lady lived further away from the city center./,Did the old lady live in the city center?,N,,1,3,lady,6,2,3,10,1,3,10,656,1562924124605,N,3299,1
210,2,p3,practice,practice_3,,/+/The old lady lived further away from the city center./,Did the old lady live in the city center?,N,,1,3,lived,7,2,4,10,1,4,10,896,1562924125501,N,3299,1
210,2,p3,practice,practice_3,,/+/The old lady lived further away from the city center./,Did the old lady live in the city center?,N,,1,3,further,8,2,5,10,1,5,10,1240,1562924126741,N,3299,1
210,2,p3,practice,practice_3,,/+/The old lady lived further away from the city center./,Did the old lady live in the city center?,N,,1,3,away,9,2,6,10,1,6,10,632,1562924127373,N,3299,1
210,2,p3,practice,practice_3,,/+/The old lady lived further away from the city center./,Did the old lady live in the city center?,N,,1,3,from,10,2,7,10,1,7,10,608,1562924127981,N,3299,1
210,2,p3,practice,practice_3,,/+/The old lady lived further away from the city center./,Did the old lady live in the city center?,N,,1,3,the,11,2,8,10,1,8,10,631,1562924128613,N,3299,1
210,2,p3,practice,practice_3,,/+/The old lady lived further away from the city center./,Did the old lady live in the city center?,N,,1,3,city,12,2,9,10,1,9,10,608,1562924129221,N,3299,1
210,2,p3,practice,practice_3,,/+/The old lady lived further away from the city center./,Did the old lady live in the city center?,N,,1,3,center.,13,2,10,10,1,10,10,808,1562924130029,N,3299,1
210,2,p4,practice,practice_4,,/+/The maid looked at the hostess with a nervous smile./,Did the maid feel nervous? ,Y,,1,4,+,1,1,1,1,1,1,1,1128,1562924134965,N,1915,0
210,2,p4,practice,practice_4,,/+/The maid looked at the hostess with a nervous smile./,Did the maid feel nervous? ,Y,,1,4,The,2,2,1,10,1,1,10,440,1562924135405,N,1915,0
210,2,p4,practice,practice_4,,/+/The maid looked at the hostess with a nervous smile./,Did the maid feel nervous? ,Y,,1,4,maid,3,2,2,10,1,2,10,704,1562924136109,N,1915,0
210,2,p4,practice,practice_4,,/+/The maid looked at the hostess with a nervous smile./,Did the maid feel nervous? ,Y,,1,4,looked,4,2,3,10,1,3,10,1232,1562924137341,N,1915,0
210,2,p4,practice,practice_4,,/+/The maid looked at the hostess with a nervous smile./,Did the maid feel nervous? ,Y,,1,4,at,5,2,4,10,1,4,10,992,1562924138333,N,1915,0
210,2,p4,practice,practice_4,,/+/The maid looked at the hostess with a nervous smile./,Did the maid feel nervous? ,Y,,1,4,the,6,2,5,10,1,5,10,559,1562924138892,N,1915,0
210,2,p4,practice,practice_4,,/+/The maid looked at the hostess with a nervous smile./,Did the maid feel nervous? ,Y,,1,4,at,7,2,4,10,1,4,10,193,1562924139085,N,1915,0
210,2,p4,practice,practice_4,,/+/The maid looked at the hostess with a nervous smile./,Did the maid feel nervous? ,Y,,1,4,looked,8,2,3,10,1,3,10,168,1562924139253,N,1915,0
210,2,p4,practice,practice_4,,/+/The maid looked at the hostess with a nervous smile./,Did the maid feel nervous? ,Y,,1,4,maid,9,2,2,10,1,2,10,1032,1562924140285,N,1915,0
210,2,p4,practice,practice_4,,/+/The maid looked at the hostess with a nervous smile./,Did the maid feel nervous? ,Y,,1,4,The,10,2,1,10,1,1,10,384,1562924140669,N,1915,0
210,2,p4,practice,practice_4,,/+/The maid looked at the hostess with a nervous smile./,Did the maid feel nervous? ,Y,,1,4,maid,11,2,2,10,1,2,10,279,1562924140948,N,1915,0
210,2,p4,practice,practice_4,,/+/The maid looked at the hostess with a nervous smile./,Did the maid feel nervous? ,Y,,1,4,looked,12,2,3,10,1,3,10,313,1562924141261,N,1915,0
210,2,p4,practice,practice_4,,/+/The maid looked at the hostess with a nervous smile./,Did the maid feel nervous? ,Y,,1,4,at,13,2,4,10,1,4,10,328,1562924141589,N,1915,0
210,2,p4,practice,practice_4,,/+/The maid looked at the hostess with a nervous smile./,Did the maid feel nervous? ,Y,,1,4,the,14,2,5,10,1,5,10,351,1562924141940,N,1915,0
210,2,p4,practice,practice_4,,/+/The maid looked at the hostess with a nervous smile./,Did the maid feel nervous? ,Y,,1,4,hostess,15,2,6,10,1,6,10,769,1562924142709,N,1915,0
210,2,p4,practice,practice_4,,/+/The maid looked at the hostess with a nervous smile./,Did the maid feel nervous? ,Y,,1,4,with,16,2,7,10,1,7,10,608,1562924143317,N,1915,0
210,2,p4,practice,practice_4,,/+/The maid looked at the hostess with a nervous smile./,Did the maid feel nervous? ,Y,,1,4,a,17,2,8,10,1,8,10,456,1562924143773,N,1915,0
210,2,p4,practice,practice_4,,/+/The maid looked at the hostess with a nervous smile./,Did the maid feel nervous? ,Y,,1,4,nervous,18,2,9,10,1,9,10,648,1562924144421,N,1915,0
210,2,p4,practice,practice_4,,/+/The maid looked at the hostess with a nervous smile./,Did the maid feel nervous? ,Y,,1,4,smile.,19,2,10,10,1,10,10,1184,1562924145605,N,1915,0
210,2,p5,practice,practice_5,,/+/The young lady * sent a red rose * became * really embarrassed./,Did the lady send a red rose?,N,,1,5,+,1,1,1,1,1,1,1,414,1562924202642,N,2771,1
210,2,p5,practice,practice_5,,/+/The young lady * sent a red rose * became * really embarrassed./,Did the lady send a red rose?,N,,1,5,The,2,2,1,10,1,1,3,463,1562924203106,N,2771,1
210,2,p5,practice,practice_5,,/+/The young lady * sent a red rose * became * really embarrassed./,Did the lady send a red rose?,N,,1,5,young,3,2,2,10,1,2,3,512,1562924203618,N,2771,1
210,2,p5,practice,practice_5,,/+/The young lady * sent a red rose * became * really embarrassed./,Did the lady send a red rose?,N,,1,5,lady,4,2,3,10,1,3,3,600,1562924204218,N,2771,1
210,2,p5,practice,practice_5,,/+/The young lady * sent a red rose * became * really embarrassed./,Did the lady send a red rose?,N,,1,5,sent,5,2,4,10,2,1,4,488,1562924204706,N,2771,1
210,2,p5,practice,practice_5,,/+/The young lady * sent a red rose * became * really embarrassed./,Did the lady send a red rose?,N,,1,5,a,6,2,5,10,2,2,4,512,1562924205218,N,2771,1
210,2,p5,practice,practice_5,,/+/The young lady * sent a red rose * became * really embarrassed./,Did the lady send a red rose?,N,,1,5,red,7,2,6,10,2,3,4,528,1562924205746,N,2771,1
210,2,p5,practice,practice_5,,/+/The young lady * sent a red rose * became * really embarrassed./,Did the lady send a red rose?,N,,1,5,rose,8,2,7,10,2,4,4,440,1562924206186,N,2771,1
210,2,p5,practice,practice_5,,/+/The young lady * sent a red rose * became * really embarrassed./,Did the lady send a red rose?,N,,1,5,became,9,2,8,10,3,1,1,920,1562924207106,N,2771,1
210,2,p5,practice,practice_5,,/+/The young lady * sent a red rose * became * really embarrassed./,Did the lady send a red rose?,N,,1,5,rose,10,2,7,10,2,4,4,344,1562924207450,N,2771,1
210,2,p5,practice,practice_5,,/+/The young lady * sent a red rose * became * really embarrassed./,Did the lady send a red rose?,N,,1,5,became,11,2,8,10,3,1,1,488,1562924207938,N,2771,1
210,2,p5,practice,practice_5,,/+/The young lady * sent a red rose * became * really embarrassed./,Did the lady send a red rose?,N,,1,5,really,12,2,9,10,4,1,2,608,1562924208546,N,2771,1
210,2,p5,practice,practice_5,,/+/The young lady * sent a red rose * became * really embarrassed./,Did the lady send a red rose?,N,,1,5,embarrassed.,13,2,10,10,4,2,2,1088,1562924209634,N,2771,1
210,2,p6,practice,practice_6,,/+/The busy workers * who were * offered a delicious pizza * felt * not so hungry./,Did someone offer the workers a pizza?,Y,,1,6,+,1,1,1,1,1,1,1,736,1562924213642,N,2627,0
210,2,p6,practice,practice_6,,/+/The busy workers * who were * offered a delicious pizza * felt * not so hungry./,Did someone offer the workers a pizza?,Y,,1,6,The,2,2,1,13,1,1,3,367,1562924214009,N,2627,0
210,2,p6,practice,practice_6,,/+/The busy workers * who were * offered a delicious pizza * felt * not so hungry./,Did someone offer the workers a pizza?,Y,,1,6,busy,3,2,2,13,1,2,3,353,1562924214362,N,2627,0
210,2,p6,practice,practice_6,,/+/The busy workers * who were * offered a delicious pizza * felt * not so hungry./,Did someone offer the workers a pizza?,Y,,1,6,workers,4,2,3,13,1,3,3,695,1562924215057,N,2627,0
210,2,p6,practice,practice_6,,/+/The busy workers * who were * offered a delicious pizza * felt * not so hungry./,Did someone offer the workers a pizza?,Y,,1,6,who,5,2,4,13,2,1,2,473,1562924215530,N,2627,0
210,2,p6,practice,practice_6,,/+/The busy workers * who were * offered a delicious pizza * felt * not so hungry./,Did someone offer the workers a pizza?,Y,,1,6,were,6,2,5,13,2,2,2,511,1562924216041,N,2627,0
210,2,p6,practice,practice_6,,/+/The busy workers * who were * offered a delicious pizza * felt * not so hungry./,Did someone offer the workers a pizza?,Y,,1,6,offered,7,2,6,13,3,1,4,689,1562924216730,N,2627,0
210,2,p6,practice,practice_6,,/+/The busy workers * who were * offered a delicious pizza * felt * not so hungry./,Did someone offer the workers a pizza?,Y,,1,6,a,8,2,7,13,3,2,4,448,1562924217178,N,2627,0
210,2,p6,practice,practice_6,,/+/The busy workers * who were * offered a delicious pizza * felt * not so hungry./,Did someone offer the workers a pizza?,Y,,1,6,delicious,9,2,8,13,3,3,4,855,1562924218033,N,2627,0
210,2,p6,practice,practice_6,,/+/The busy workers * who were * offered a delicious pizza * felt * not so hungry./,Did someone offer the workers a pizza?,Y,,1,6,pizza,10,2,9,13,3,4,4,1193,1562924219226,N,2627,0
210,2,p6,practice,practice_6,,/+/The busy workers * who were * offered a delicious pizza * felt * not so hungry./,Did someone offer the workers a pizza?,Y,,1,6,delicious,11,2,8,13,3,3,4,328,1562924219554,N,2627,0
210,2,p6,practice,practice_6,,/+/The busy workers * who were * offered a delicious pizza * felt * not so hungry./,Did someone offer the workers a pizza?,Y,,1,6,a,12,2,7,13,3,2,4,176,1562924219730,N,2627,0
210,2,p6,practice,practice_6,,/+/The busy workers * who were * offered a delicious pizza * felt * not so hungry./,Did someone offer the workers a pizza?,Y,,1,6,offered,13,2,6,13,3,1,4,184,1562924219914,N,2627,0
210,2,p6,practice,practice_6,,/+/The busy workers * who were * offered a delicious pizza * felt * not so hungry./,Did someone offer the workers a pizza?,Y,,1,6,were,14,2,5,13,2,2,2,167,1562924220081,N,2627,0
210,2,p6,practice,practice_6,,/+/The busy workers * who were * offered a delicious pizza * felt * not so hungry./,Did someone offer the workers a pizza?,Y,,1,6,who,15,2,4,13,2,1,2,160,1562924220242,N,2627,0
210,2,p6,practice,practice_6,,/+/The busy workers * who were * offered a delicious pizza * felt * not so hungry./,Did someone offer the workers a pizza?,Y,,1,6,workers,16,2,3,13,1,3,3,168,1562924220410,N,2627,0
210,2,p6,practice,practice_6,,/+/The busy workers * who were * offered a delicious pizza * felt * not so hungry./,Did someone offer the workers a pizza?,Y,,1,6,busy,17,2,2,13,1,2,3,488,1562924220898,N,2627,0
210,2,p6,practice,practice_6,,/+/The busy workers * who were * offered a delicious pizza * felt * not so hungry./,Did someone offer the workers a pizza?,Y,,1,6,workers,18,2,3,13,1,3,3,296,1562924221194,N,2627,0
210,2,p6,practice,practice_6,,/+/The busy workers * who were * offered a delicious pizza * felt * not so hungry./,Did someone offer the workers a pizza?,Y,,1,6,who,19,2,4,13,2,1,2,320,1562924221514,N,2627,0
210,2,p6,practice,practice_6,,/+/The busy workers * who were * offered a delicious pizza * felt * not so hungry./,Did someone offer the workers a pizza?,Y,,1,6,were,20,2,5,13,2,2,2,416,1562924221930,N,2627,0
210,2,p6,practice,practice_6,,/+/The busy workers * who were * offered a delicious pizza * felt * not so hungry./,Did someone offer the workers a pizza?,Y,,1,6,offered,21,2,6,13,3,1,4,1472,1562924223402,N,2627,0
210,2,p6,practice,practice_6,,/+/The busy workers * who were * offered a delicious pizza * felt * not so hungry./,Did someone offer the workers a pizza?,Y,,1,6,a,22,2,7,13,3,2,4,488,1562924223890,N,2627,0
210,2,p6,practice,practice_6,,/+/The busy workers * who were * offered a delicious pizza * felt * not so hungry./,Did someone offer the workers a pizza?,Y,,1,6,delicious,23,2,8,13,3,3,4,456,1562924224346,N,2627,0
210,2,p6,practice,practice_6,,/+/The busy workers * who were * offered a delicious pizza * felt * not so hungry./,Did someone offer the workers a pizza?,Y,,1,6,pizza,24,2,9,13,3,4,4,448,1562924224794,N,2627,0
210,2,p6,practice,practice_6,,/+/The busy workers * who were * offered a delicious pizza * felt * not so hungry./,Did someone offer the workers a pizza?,Y,,1,6,felt,25,2,10,13,4,1,1,448,1562924225242,N,2627,0
210,2,p6,practice,practice_6,,/+/The busy workers * who were * offered a delicious pizza * felt * not so hungry./,Did someone offer the workers a pizza?,Y,,1,6,not,26,2,11,13,5,1,3,664,1562924225906,N,2627,0
210,2,p6,practice,practice_6,,/+/The busy workers * who were * offered a delicious pizza * felt * not so hungry./,Did someone offer the workers a pizza?,Y,,1,6,so,27,2,12,13,5,2,3,896,1562924226802,N,2627,0
210,2,p6,practice,practice_6,,/+/The busy workers * who were * offered a delicious pizza * felt * not so hungry./,Did someone offer the workers a pizza?,Y,,1,6,hungry.,28,2,13,13,5,3,3,920,1562924227722,N,2627,0
210,2,1,filler,filler_6,,/+/The girl sang very well through learning experiences from her tutor./,Did the girl's tutor do a lot of help? ,Y,练习结束，现在开始正式实验。,0,7,+,1,1,1,1,1,1,1,1783,1562924445619,N,7275,0
210,2,1,filler,filler_6,,/+/The girl sang very well through learning experiences from her tutor./,Did the girl's tutor do a lot of help? ,Y,练习结束，现在开始正式实验。,0,7,The,2,2,1,11,1,1,11,535,1562924446154,N,7275,0
210,2,1,filler,filler_6,,/+/The girl sang very well through learning experiences from her tutor./,Did the girl's tutor do a lot of help? ,Y,练习结束，现在开始正式实验。,0,7,girl,3,2,2,11,1,2,11,504,1562924446659,N,7275,0
210,2,1,filler,filler_6,,/+/The girl sang very well through learning experiences from her tutor./,Did the girl's tutor do a lot of help? ,Y,练习结束，现在开始正式实验。,0,7,sang,4,2,3,11,1,3,11,503,1562924447162,N,7275,0
210,2,1,filler,filler_6,,/+/The girl sang very well through learning experiences from her tutor./,Did the girl's tutor do a lot of help? ,Y,练习结束，现在开始正式实验。,0,7,very,5,2,4,11,1,4,11,472,1562924447634,N,7275,0
210,2,1,filler,filler_6,,/+/The girl sang very well through learning experiences from her tutor./,Did the girl's tutor do a lot of help? ,Y,练习结束，现在开始正式实验。,0,7,well,6,2,5,11,1,5,11,511,1562924448146,N,7275,0
210,2,1,filler,filler_6,,/+/The girl sang very well through learning experiences from her tutor./,Did the girl's tutor do a lot of help? ,Y,练习结束，现在开始正式实验。,0,7,through,7,2,6,11,1,6,11,535,1562924448682,N,7275,0
210,2,1,filler,filler_6,,/+/The girl sang very well through learning experiences from her tutor./,Did the girl's tutor do a lot of help? ,Y,练习结束，现在开始正式实验。,0,7,learning,8,2,7,11,1,7,11,655,1562924449338,N,7275,0
210,2,1,filler,filler_6,,/+/The girl sang very well through learning experiences from her tutor./,Did the girl's tutor do a lot of help? ,Y,练习结束，现在开始正式实验。,0,7,through,9,2,6,11,1,6,11,1552,1562924450890,N,7275,0
210,2,1,filler,filler_6,,/+/The girl sang very well through learning experiences from her tutor./,Did the girl's tutor do a lot of help? ,Y,练习结束，现在开始正式实验。,0,7,learning,10,2,7,11,1,7,11,1231,1562924452122,N,7275,0
210,2,1,filler,filler_6,,/+/The girl sang very well through learning experiences from her tutor./,Did the girl's tutor do a lot of help? ,Y,练习结束，现在开始正式实验。,0,7,through,11,2,6,11,1,6,11,207,1562924452330,N,7275,0
210,2,1,filler,filler_6,,/+/The girl sang very well through learning experiences from her tutor./,Did the girl's tutor do a lot of help? ,Y,练习结束，现在开始正式实验。,0,7,well,12,2,5,11,1,5,11,648,1562924452978,N,7275,0
210,2,1,filler,filler_6,,/+/The girl sang very well through learning experiences from her tutor./,Did the girl's tutor do a lot of help? ,Y,练习结束，现在开始正式实验。,0,7,through,13,2,6,11,1,6,11,2887,1562924455866,N,7275,0
210,2,1,filler,filler_6,,/+/The girl sang very well through learning experiences from her tutor./,Did the girl's tutor do a lot of help? ,Y,练习结束，现在开始正式实验。,0,7,learning,14,2,7,11,1,7,11,623,1562924456490,N,7275,0
210,2,1,filler,filler_6,,/+/The girl sang very well through learning experiences from her tutor./,Did the girl's tutor do a lot of help? ,Y,练习结束，现在开始正式实验。,0,7,experiences,15,2,8,11,1,8,11,1032,1562924457522,N,7275,0
210,2,1,filler,filler_6,,/+/The girl sang very well through learning experiences from her tutor./,Did the girl's tutor do a lot of help? ,Y,练习结束，现在开始正式实验。,0,7,from,16,2,9,11,1,9,11,728,1562924458250,N,7275,0
210,2,1,filler,filler_6,,/+/The girl sang very well through learning experiences from her tutor./,Did the girl's tutor do a lot of help? ,Y,练习结束，现在开始正式实验。,0,7,her,17,2,10,11,1,10,11,592,1562924458842,N,7275,0
210,2,1,filler,filler_6,,/+/The girl sang very well through learning experiences from her tutor./,Did the girl's tutor do a lot of help? ,Y,练习结束，现在开始正式实验。,0,7,tutor.,18,2,11,11,1,11,11,1175,1562924460018,N,7275,0
210,2,2,filler,filler_7,,/+/Some important papers which lay in the office were stolen last night./,Were the papers still safe?,N,,0,8,+,1,1,1,1,1,1,1,1190,1562924468986,N,4852,1
210,2,2,filler,filler_7,,/+/Some important papers which lay in the office were stolen last night./,Were the papers still safe?,N,,0,8,Some,2,2,1,12,1,1,12,408,1562924469394,N,4852,1
210,2,2,filler,filler_7,,/+/Some important papers which lay in the office were stolen last night./,Were the papers still safe?,N,,0,8,important,3,2,2,12,1,2,12,1376,1562924470770,N,4852,1
210,2,2,filler,filler_7,,/+/Some important papers which lay in the office were stolen last night./,Were the papers still safe?,N,,0,8,papers,4,2,3,12,1,3,12,1192,1562924471962,N,4852,1
210,2,2,filler,filler_7,,/+/Some important papers which lay in the office were stolen last night./,Were the papers still safe?,N,,0,8,which,5,2,4,12,1,4,12,784,1562924472746,N,4852,1
210,2,2,filler,filler_7,,/+/Some important papers which lay in the office were stolen last night./,Were the papers still safe?,N,,0,8,lay,6,2,5,12,1,5,12,560,1562924473306,N,4852,1
210,2,2,filler,filler_7,,/+/Some important papers which lay in the office were stolen last night./,Were the papers still safe?,N,,0,8,in,7,2,6,12,1,6,12,592,1562924473898,N,4852,1
210,2,2,filler,filler_7,,/+/Some important papers which lay in the office were stolen last night./,Were the papers still safe?,N,,0,8,the,8,2,7,12,1,7,12,520,1562924474418,N,4852,1
210,2,2,filler,filler_7,,/+/Some important papers which lay in the office were stolen last night./,Were the papers still safe?,N,,0,8,office,9,2,8,12,1,8,12,1032,1562924475450,N,4852,1
210,2,2,filler,filler_7,,/+/Some important papers which lay in the office were stolen last night./,Were the papers still safe?,N,,0,8,were,10,2,9,12,1,9,12,808,1562924476258,N,4852,1
210,2,2,filler,filler_7,,/+/Some important papers which lay in the office were stolen last night./,Were the papers still safe?,N,,0,8,stolen,11,2,10,12,1,10,12,1399,1562924477657,N,4852,1
210,2,2,filler,filler_7,,/+/Some important papers which lay in the office were stolen last night./,Were the papers still safe?,N,,0,8,last,12,2,11,12,1,11,12,809,1562924478466,N,4852,1
210,2,2,filler,filler_7,,/+/Some important papers which lay in the office were stolen last night./,Were the papers still safe?,N,,0,8,night.,13,2,12,12,1,12,12,2472,1562924480938,N,4852,1
210,2,2,filler,filler_7,,/+/Some important papers which lay in the office were stolen last night./,Were the papers still safe?,N,,0,8,last,14,2,11,12,1,11,12,500,1562924481438,N,4852,1
210,2,2,filler,filler_7,,/+/Some important papers which lay in the office were stolen last night./,Were the papers still safe?,N,,0,8,stolen,15,2,10,12,1,10,12,33,1562924481471,N,4852,1
210,2,2,filler,filler_7,,/+/Some important papers which lay in the office were stolen last night./,Were the papers still safe?,N,,0,8,were,16,2,9,12,1,9,12,33,1562924481504,N,4852,1
210,2,2,filler,filler_7,,/+/Some important papers which lay in the office were stolen last night./,Were the papers still safe?,N,,0,8,office,17,2,8,12,1,8,12,33,1562924481537,N,4852,1
210,2,2,filler,filler_7,,/+/Some important papers which lay in the office were stolen last night./,Were the papers still safe?,N,,0,8,the,18,2,7,12,1,7,12,33,1562924481570,N,4852,1
210,2,2,filler,filler_7,,/+/Some important papers which lay in the office were stolen last night./,Were the papers still safe?,N,,0,8,in,19,2,6,12,1,6,12,33,1562924481603,N,4852,1
210,2,2,filler,filler_7,,/+/Some important papers which lay in the office were stolen last night./,Were the papers still safe?,N,,0,8,lay,20,2,5,12,1,5,12,33,1562924481636,N,4852,1
210,2,2,filler,filler_7,,/+/Some important papers which lay in the office were stolen last night./,Were the papers still safe?,N,,0,8,which,21,2,4,12,1,4,12,33,1562924481669,N,4852,1
210,2,2,filler,filler_7,,/+/Some important papers which lay in the office were stolen last night./,Were the papers still safe?,N,,0,8,papers,22,2,3,12,1,3,12,32,1562924481701,N,4852,1
210,2,2,filler,filler_7,,/+/Some important papers which lay in the office were stolen last night./,Were the papers still safe?,N,,0,8,important,23,2,2,12,1,2,12,33,1562924481734,N,4852,1
210,2,2,filler,filler_7,,/+/Some important papers which lay in the office were stolen last night./,Were the papers still safe?,N,,0,8,Some,24,2,1,12,1,1,12,700,1562924482434,N,4852,1
210,2,2,filler,filler_7,,/+/Some important papers which lay in the office were stolen last night./,Were the papers still safe?,N,,0,8,important,25,2,2,12,1,2,12,656,1562924483090,N,4852,1
210,2,2,filler,filler_7,,/+/Some important papers which lay in the office were stolen last night./,Were the papers still safe?,N,,0,8,papers,26,2,3,12,1,3,12,504,1562924483594,N,4852,1
210,2,2,filler,filler_7,,/+/Some important papers which lay in the office were stolen last night./,Were the papers still safe?,N,,0,8,which,27,2,4,12,1,4,12,312,1562924483906,N,4852,1
210,2,2,filler,filler_7,,/+/Some important papers which lay in the office were stolen last night./,Were the papers still safe?,N,,0,8,lay,28,2,5,12,1,5,12,528,1562924484434,N,4852,1
210,2,2,filler,filler_7,,/+/Some important papers which lay in the office were stolen last night./,Were the papers still safe?,N,,0,8,in,29,2,6,12,1,6,12,552,1562924484986,N,4852,1
210,2,2,filler,filler_7,,/+/Some important papers which lay in the office were stolen last night./,Were the papers still safe?,N,,0,8,the,30,2,7,12,1,7,12,376,1562924485362,N,4852,1
210,2,2,filler,filler_7,,/+/Some important papers which lay in the office were stolen last night./,Were the papers still safe?,N,,0,8,office,31,2,8,12,1,8,12,384,1562924485746,N,4852,1
210,2,2,filler,filler_7,,/+/Some important papers which lay in the office were stolen last night./,Were the papers still safe?,N,,0,8,were,32,2,9,12,1,9,12,856,1562924486602,N,4852,1
210,2,2,filler,filler_7,,/+/Some important papers which lay in the office were stolen last night./,Were the papers still safe?,N,,0,8,office,33,2,8,12,1,8,12,488,1562924487090,N,4852,1
210,2,2,filler,filler_7,,/+/Some important papers which lay in the office were stolen last night./,Were the papers still safe?,N,,0,8,were,34,2,9,12,1,9,12,288,1562924487378,N,4852,1
210,2,2,filler,filler_7,,/+/Some important papers which lay in the office were stolen last night./,Were the papers still safe?,N,,0,8,stolen,35,2,10,12,1,10,12,1216,1562924488594,N,4852,1
210,2,2,filler,filler_7,,/+/Some important papers which lay in the office were stolen last night./,Were the papers still safe?,N,,0,8,last,36,2,11,12,1,11,12,664,1562924489258,N,4852,1
210,2,2,filler,filler_7,,/+/Some important papers which lay in the office were stolen last night./,Were the papers still safe?,N,,0,8,night.,37,2,12,12,1,12,12,1144,1562924490402,N,4852,1
210,2,3,target,target_1,C,/+/The cotton farmers * who were * warned about the bad floods * had * no other crops./,Did the farmers warn about the floods?,N,,0,9,+,1,1,1,1,1,1,1,1079,1562924496834,N,5459,1
210,2,3,target,target_1,C,/+/The cotton farmers * who were * warned about the bad floods * had * no other crops./,Did the farmers warn about the floods?,N,,0,9,The,2,2,1,14,1,1,3,407,1562924497241,N,5459,1
210,2,3,target,target_1,C,/+/The cotton farmers * who were * warned about the bad floods * had * no other crops./,Did the farmers warn about the floods?,N,,0,9,cotton,3,2,2,14,1,2,3,1095,1562924498337,N,5459,1
210,2,3,target,target_1,C,/+/The cotton farmers * who were * warned about the bad floods * had * no other crops./,Did the farmers warn about the floods?,N,,0,9,farmers,4,2,3,14,1,3,3,999,1562924499337,N,5459,1
210,2,3,target,target_1,C,/+/The cotton farmers * who were * warned about the bad floods * had * no other crops./,Did the farmers warn about the floods?,N,,0,9,who,5,2,4,14,2,1,2,911,1562924500249,N,5459,1
210,2,3,target,target_1,C,/+/The cotton farmers * who were * warned about the bad floods * had * no other crops./,Did the farmers warn about the floods?,N,,0,9,were,6,2,5,14,2,2,2,607,1562924500857,N,5459,1
210,2,3,target,target_1,C,/+/The cotton farmers * who were * warned about the bad floods * had * no other crops./,Did the farmers warn about the floods?,N,,0,9,warned,7,2,6,14,3,1,5,1167,1562924502025,N,5459,1
210,2,3,target,target_1,C,/+/The cotton farmers * who were * warned about the bad floods * had * no other crops./,Did the farmers warn about the floods?,N,,0,9,about,8,2,7,14,3,2,5,634,1562924502659,N,5459,1
210,2,3,target,target_1,C,/+/The cotton farmers * who were * warned about the bad floods * had * no other crops./,Did the farmers warn about the floods?,N,,0,9,the,9,2,8,14,3,3,5,487,1562924503146,N,5459,1
210,2,3,target,target_1,C,/+/The cotton farmers * who were * warned about the bad floods * had * no other crops./,Did the farmers warn about the floods?,N,,0,9,bad,10,2,9,14,3,4,5,537,1562924503683,N,5459,1
210,2,3,target,target_1,C,/+/The cotton farmers * who were * warned about the bad floods * had * no other crops./,Did the farmers warn about the floods?,N,,0,9,floods,11,2,10,14,3,5,5,672,1562924504355,N,5459,1
210,2,3,target,target_1,C,/+/The cotton farmers * who were * warned about the bad floods * had * no other crops./,Did the farmers warn about the floods?,N,,0,9,had,12,2,11,14,4,1,1,544,1562924504899,N,5459,1
210,2,3,target,target_1,C,/+/The cotton farmers * who were * warned about the bad floods * had * no other crops./,Did the farmers warn about the floods?,N,,0,9,no,13,2,12,14,5,1,3,440,1562924505339,N,5459,1
210,2,3,target,target_1,C,/+/The cotton farmers * who were * warned about the bad floods * had * no other crops./,Did the farmers warn about the floods?,N,,0,9,other,14,2,13,14,5,2,3,544,1562924505883,N,5459,1
210,2,3,target,target_1,C,/+/The cotton farmers * who were * warned about the bad floods * had * no other crops./,Did the farmers warn about the floods?,N,,0,9,crops.,15,2,14,14,5,3,3,888,1562924506771,N,5459,1
210,2,3,target,target_1,C,/+/The cotton farmers * who were * warned about the bad floods * had * no other crops./,Did the farmers warn about the floods?,N,,0,9,other,16,2,13,14,5,2,3,407,1562924507178,N,5459,1
210,2,3,target,target_1,C,/+/The cotton farmers * who were * warned about the bad floods * had * no other crops./,Did the farmers warn about the floods?,N,,0,9,crops.,17,2,14,14,5,3,3,697,1562924507875,N,5459,1
210,2,4,filler,filler_10,,/+/There was a big hole in the road which blocked the traffic./,Was there a big hole in the road?,Y,,0,10,+,1,1,1,1,1,1,1,895,1562924514731,Y,5683,1
210,2,4,filler,filler_10,,/+/There was a big hole in the road which blocked the traffic./,Was there a big hole in the road?,Y,,0,10,There,2,2,1,12,1,1,12,376,1562924515107,Y,5683,1
210,2,4,filler,filler_10,,/+/There was a big hole in the road which blocked the traffic./,Was there a big hole in the road?,Y,,0,10,was,3,2,2,12,1,2,12,656,1562924515763,Y,5683,1
210,2,4,filler,filler_10,,/+/There was a big hole in the road which blocked the traffic./,Was there a big hole in the road?,Y,,0,10,a,4,2,3,12,1,3,12,608,1562924516371,Y,5683,1
210,2,4,filler,filler_10,,/+/There was a big hole in the road which blocked the traffic./,Was there a big hole in the road?,Y,,0,10,big,5,2,4,12,1,4,12,919,1562924517290,Y,5683,1
210,2,4,filler,filler_10,,/+/There was a big hole in the road which blocked the traffic./,Was there a big hole in the road?,Y,,0,10,hole,6,2,5,12,1,5,12,753,1562924518043,Y,5683,1
210,2,4,filler,filler_10,,/+/There was a big hole in the road which blocked the traffic./,Was there a big hole in the road?,Y,,0,10,in,7,2,6,12,1,6,12,480,1562924518523,Y,5683,1
210,2,4,filler,filler_10,,/+/There was a big hole in the road which blocked the traffic./,Was there a big hole in the road?,Y,,0,10,the,8,2,7,12,1,7,12,416,1562924518939,Y,5683,1
210,2,4,filler,filler_10,,/+/There was a big hole in the road which blocked the traffic./,Was there a big hole in the road?,Y,,0,10,road,9,2,8,12,1,8,12,504,1562924519443,Y,5683,1
210,2,4,filler,filler_10,,/+/There was a big hole in the road which blocked the traffic./,Was there a big hole in the road?,Y,,0,10,which,10,2,9,12,1,9,12,608,1562924520051,Y,5683,1
210,2,4,filler,filler_10,,/+/There was a big hole in the road which blocked the traffic./,Was there a big hole in the road?,Y,,0,10,blocked,11,2,10,12,1,10,12,992,1562924521043,Y,5683,1
210,2,4,filler,filler_10,,/+/There was a big hole in the road which blocked the traffic./,Was there a big hole in the road?,Y,,0,10,the,12,2,11,12,1,11,12,663,1562924521706,Y,5683,1
210,2,4,filler,filler_10,,/+/There was a big hole in the road which blocked the traffic./,Was there a big hole in the road?,Y,,0,10,traffic.,13,2,12,12,1,12,12,1959,1562924523666,Y,5683,1
210,2,5,target,target_2,G,/+/The sunburned boys * served the hot dogs * got * a stomach ache./,Did the boys serve the hot dogs?,N,,0,11,+,1,1,1,1,1,1,1,774,1562924530626,N,6020,1
210,2,5,target,target_2,G,/+/The sunburned boys * served the hot dogs * got * a stomach ache./,Did the boys serve the hot dogs?,N,,0,11,The,2,2,1,11,1,1,3,344,1562924530970,N,6020,1
210,2,5,target,target_2,G,/+/The sunburned boys * served the hot dogs * got * a stomach ache./,Did the boys serve the hot dogs?,N,,0,11,sunburned,3,2,2,11,1,2,3,280,1562924531250,N,6020,1
210,2,5,target,target_2,G,/+/The sunburned boys * served the hot dogs * got * a stomach ache./,Did the boys serve the hot dogs?,N,,0,11,boys,4,2,3,11,1,3,3,520,1562924531770,N,6020,1
210,2,5,target,target_2,G,/+/The sunburned boys * served the hot dogs * got * a stomach ache./,Did the boys serve the hot dogs?,N,,0,11,sunburned,5,2,2,11,1,2,3,1864,1562924533634,N,6020,1
210,2,5,target,target_2,G,/+/The sunburned boys * served the hot dogs * got * a stomach ache./,Did the boys serve the hot dogs?,N,,0,11,boys,6,2,3,11,1,3,3,688,1562924534322,N,6020,1
210,2,5,target,target_2,G,/+/The sunburned boys * served the hot dogs * got * a stomach ache./,Did the boys serve the hot dogs?,N,,0,11,served,7,2,4,11,2,1,4,1096,1562924535418,N,6020,1
210,2,5,target,target_2,G,/+/The sunburned boys * served the hot dogs * got * a stomach ache./,Did the boys serve the hot dogs?,N,,0,11,the,8,2,5,11,2,2,4,728,1562924536146,N,6020,1
210,2,5,target,target_2,G,/+/The sunburned boys * served the hot dogs * got * a stomach ache./,Did the boys serve the hot dogs?,N,,0,11,hot,9,2,6,11,2,3,4,471,1562924536617,N,6020,1
210,2,5,target,target_2,G,/+/The sunburned boys * served the hot dogs * got * a stomach ache./,Did the boys serve the hot dogs?,N,,0,11,dogs,10,2,7,11,2,4,4,584,1562924537202,N,6020,1
210,2,5,target,target_2,G,/+/The sunburned boys * served the hot dogs * got * a stomach ache./,Did the boys serve the hot dogs?,N,,0,11,got,11,2,8,11,3,1,1,600,1562924537802,N,6020,1
210,2,5,target,target_2,G,/+/The sunburned boys * served the hot dogs * got * a stomach ache./,Did the boys serve the hot dogs?,N,,0,11,a,12,2,9,11,4,1,3,759,1562924538561,N,6020,1
210,2,5,target,target_2,G,/+/The sunburned boys * served the hot dogs * got * a stomach ache./,Did the boys serve the hot dogs?,N,,0,11,stomach,13,2,10,11,4,2,3,888,1562924539450,N,6020,1
210,2,5,target,target_2,G,/+/The sunburned boys * served the hot dogs * got * a stomach ache./,Did the boys serve the hot dogs?,N,,0,11,ache.,14,2,11,11,4,3,3,1183,1562924540633,N,6020,1
210,2,6,filler,filler_17,,/+/The students who failed the exam were asked to take it again./,Should all students take the exam again?,N,,0,12,+,1,1,1,1,1,1,1,871,1562924548026,N,5339,1
210,2,6,filler,filler_17,,/+/The students who failed the exam were asked to take it again./,Should all students take the exam again?,N,,0,12,The,2,2,1,12,1,1,12,512,1562924548538,N,5339,1
210,2,6,filler,filler_17,,/+/The students who failed the exam were asked to take it again./,Should all students take the exam again?,N,,0,12,students,3,2,2,12,1,2,12,384,1562924548922,N,5339,1
210,2,6,filler,filler_17,,/+/The students who failed the exam were asked to take it again./,Should all students take the exam again?,N,,0,12,who,4,2,3,12,1,3,12,552,1562924549474,N,5339,1
210,2,6,filler,filler_17,,/+/The students who failed the exam were asked to take it again./,Should all students take the exam again?,N,,0,12,failed,5,2,4,12,1,4,12,1912,1562924551386,N,5339,1
210,2,6,filler,filler_17,,/+/The students who failed the exam were asked to take it again./,Should all students take the exam again?,N,,0,12,who,6,2,3,12,1,3,12,455,1562924551841,N,5339,1
210,2,6,filler,filler_17,,/+/The students who failed the exam were asked to take it again./,Should all students take the exam again?,N,,0,12,students,7,2,2,12,1,2,12,281,1562924552122,N,5339,1
210,2,6,filler,filler_17,,/+/The students who failed the exam were asked to take it again./,Should all students take the exam again?,N,,0,12,The,8,2,1,12,1,1,12,400,1562924552522,N,5339,1
210,2,6,filler,filler_17,,/+/The students who failed the exam were asked to take it again./,Should all students take the exam again?,N,,0,12,students,9,2,2,12,1,2,12,239,1562924552761,N,5339,1
210,2,6,filler,filler_17,,/+/The students who failed the exam were asked to take it again./,Should all students take the exam again?,N,,0,12,who,10,2,3,12,1,3,12,473,1562924553234,N,5339,1
210,2,6,filler,filler_17,,/+/The students who failed the exam were asked to take it again./,Should all students take the exam again?,N,,0,12,failed,11,2,4,12,1,4,12,543,1562924553777,N,5339,1
210,2,6,filler,filler_17,,/+/The students who failed the exam were asked to take it again./,Should all students take the exam again?,N,,0,12,the,12,2,5,12,1,5,12,433,1562924554210,N,5339,1
210,2,6,filler,filler_17,,/+/The students who failed the exam were asked to take it again./,Should all students take the exam again?,N,,0,12,exam,13,2,6,12,1,6,12,575,1562924554785,N,5339,1
210,2,6,filler,filler_17,,/+/The students who failed the exam were asked to take it again./,Should all students take the exam again?,N,,0,12,were,14,2,7,12,1,7,12,657,1562924555442,N,5339,1
210,2,6,filler,filler_17,,/+/The students who failed the exam were asked to take it again./,Should all students take the exam again?,N,,0,12,asked,15,2,8,12,1,8,12,896,1562924556338,N,5339,1
210,2,6,filler,filler_17,,/+/The students who failed the exam were asked to take it again./,Should all students take the exam again?,N,,0,12,were,16,2,7,12,1,7,12,368,1562924556706,N,5339,1
210,2,6,filler,filler_17,,/+/The students who failed the exam were asked to take it again./,Should all students take the exam again?,N,,0,12,exam,17,2,6,12,1,6,12,496,1562924557202,N,5339,1
210,2,6,filler,filler_17,,/+/The students who failed the exam were asked to take it again./,Should all students take the exam again?,N,,0,12,were,18,2,7,12,1,7,12,352,1562924557554,N,5339,1
210,2,6,filler,filler_17,,/+/The students who failed the exam were asked to take it again./,Should all students take the exam again?,N,,0,12,asked,19,2,8,12,1,8,12,696,1562924558250,N,5339,1
210,2,6,filler,filler_17,,/+/The students who failed the exam were asked to take it again./,Should all students take the exam again?,N,,0,12,to,20,2,9,12,1,9,12,472,1562924558722,N,5339,1
210,2,6,filler,filler_17,,/+/The students who failed the exam were asked to take it again./,Should all students take the exam again?,N,,0,12,take,21,2,10,12,1,10,12,600,1562924559322,N,5339,1
210,2,6,filler,filler_17,,/+/The students who failed the exam were asked to take it again./,Should all students take the exam again?,N,,0,12,it,22,2,11,12,1,11,12,432,1562924559754,N,5339,1
210,2,6,filler,filler_17,,/+/The students who failed the exam were asked to take it again./,Should all students take the exam again?,N,,0,12,again.,23,2,12,12,1,12,12,1336,1562924561090,N,5339,1
210,2,6,filler,filler_17,,/+/The students who failed the exam were asked to take it again./,Should all students take the exam again?,N,,0,12,it,24,2,11,12,1,11,12,499,1562924561589,N,5339,1
210,2,6,filler,filler_17,,/+/The students who failed the exam were asked to take it again./,Should all students take the exam again?,N,,0,12,take,25,2,10,12,1,10,12,33,1562924561622,N,5339,1
210,2,6,filler,filler_17,,/+/The students who failed the exam were asked to take it again./,Should all students take the exam again?,N,,0,12,to,26,2,9,12,1,9,12,33,1562924561655,N,5339,1
210,2,6,filler,filler_17,,/+/The students who failed the exam were asked to take it again./,Should all students take the exam again?,N,,0,12,asked,27,2,8,12,1,8,12,33,1562924561688,N,5339,1
210,2,6,filler,filler_17,,/+/The students who failed the exam were asked to take it again./,Should all students take the exam again?,N,,0,12,were,28,2,7,12,1,7,12,33,1562924561721,N,5339,1
210,2,6,filler,filler_17,,/+/The students who failed the exam were asked to take it again./,Should all students take the exam again?,N,,0,12,exam,29,2,6,12,1,6,12,33,1562924561754,N,5339,1
210,2,6,filler,filler_17,,/+/The students who failed the exam were asked to take it again./,Should all students take the exam again?,N,,0,12,the,30,2,5,12,1,5,12,33,1562924561787,N,5339,1
210,2,6,filler,filler_17,,/+/The students who failed the exam were asked to take it again./,Should all students take the exam again?,N,,0,12,failed,31,2,4,12,1,4,12,33,1562924561820,N,5339,1
210,2,6,filler,filler_17,,/+/The students who failed the exam were asked to take it again./,Should all students take the exam again?,N,,0,12,who,32,2,3,12,1,3,12,33,1562924561853,N,5339,1
210,2,6,filler,filler_17,,/+/The students who failed the exam were asked to take it again./,Should all students take the exam again?,N,,0,12,students,33,2,2,12,1,2,12,33,1562924561886,N,5339,1
210,2,6,filler,filler_17,,/+/The students who failed the exam were asked to take it again./,Should all students take the exam again?,N,,0,12,The,34,2,1,12,1,1,12,548,1562924562434,N,5339,1
210,2,6,filler,filler_17,,/+/The students who failed the exam were asked to take it again./,Should all students take the exam again?,N,,0,12,students,35,2,2,12,1,2,12,289,1562924562723,N,5339,1
210,2,6,filler,filler_17,,/+/The students who failed the exam were asked to take it again./,Should all students take the exam again?,N,,0,12,who,36,2,3,12,1,3,12,352,1562924563075,N,5339,1
210,2,6,filler,filler_17,,/+/The students who failed the exam were asked to take it again./,Should all students take the exam again?,N,,0,12,failed,37,2,4,12,1,4,12,584,1562924563659,N,5339,1
210,2,6,filler,filler_17,,/+/The students who failed the exam were asked to take it again./,Should all students take the exam again?,N,,0,12,the,38,2,5,12,1,5,12,416,1562924564075,N,5339,1
210,2,6,filler,filler_17,,/+/The students who failed the exam were asked to take it again./,Should all students take the exam again?,N,,0,12,exam,39,2,6,12,1,6,12,896,1562924564971,N,5339,1
210,2,6,filler,filler_17,,/+/The students who failed the exam were asked to take it again./,Should all students take the exam again?,N,,0,12,were,40,2,7,12,1,7,12,400,1562924565371,N,5339,1
210,2,6,filler,filler_17,,/+/The students who failed the exam were asked to take it again./,Should all students take the exam again?,N,,0,12,asked,41,2,8,12,1,8,12,352,1562924565723,N,5339,1
210,2,6,filler,filler_17,,/+/The students who failed the exam were asked to take it again./,Should all students take the exam again?,N,,0,12,to,42,2,9,12,1,9,12,320,1562924566043,N,5339,1
210,2,6,filler,filler_17,,/+/The students who failed the exam were asked to take it again./,Should all students take the exam again?,N,,0,12,take,43,2,10,12,1,10,12,408,1562924566451,N,5339,1
210,2,6,filler,filler_17,,/+/The students who failed the exam were asked to take it again./,Should all students take the exam again?,N,,0,12,it,44,2,11,12,1,11,12,432,1562924566883,N,5339,1
210,2,6,filler,filler_17,,/+/The students who failed the exam were asked to take it again./,Should all students take the exam again?,N,,0,12,again.,45,2,12,12,1,12,12,488,1562924567371,N,5339,1
210,2,7,filler,filler_25,,/+/The suitcase which Mike bought has been broken down by his son./,Has the suitcase been broken by Mike?,N,,0,13,+,1,1,1,1,1,1,1,925,1562924574138,N,4291,1
210,2,7,filler,filler_25,,/+/The suitcase which Mike bought has been broken down by his son./,Has the suitcase been broken by Mike?,N,,0,13,The,2,2,1,12,1,1,12,321,1562924574459,N,4291,1
210,2,7,filler,filler_25,,/+/The suitcase which Mike bought has been broken down by his son./,Has the suitcase been broken by Mike?,N,,0,13,suitcase,3,2,2,12,1,2,12,280,1562924574739,N,4291,1
210,2,7,filler,filler_25,,/+/The suitcase which Mike bought has been broken down by his son./,Has the suitcase been broken by Mike?,N,,0,13,which,4,2,3,12,1,3,12,552,1562924575291,N,4291,1
210,2,7,filler,filler_25,,/+/The suitcase which Mike bought has been broken down by his son./,Has the suitcase been broken by Mike?,N,,0,13,suitcase,5,2,2,12,1,2,12,408,1562924575699,N,4291,1
210,2,7,filler,filler_25,,/+/The suitcase which Mike bought has been broken down by his son./,Has the suitcase been broken by Mike?,N,,0,13,which,6,2,3,12,1,3,12,447,1562924576146,N,4291,1
210,2,7,filler,filler_25,,/+/The suitcase which Mike bought has been broken down by his son./,Has the suitcase been broken by Mike?,N,,0,13,suitcase,7,2,2,12,1,2,12,641,1562924576787,N,4291,1
210,2,7,filler,filler_25,,/+/The suitcase which Mike bought has been broken down by his son./,Has the suitcase been broken by Mike?,N,,0,13,which,8,2,3,12,1,3,12,391,1562924577178,N,4291,1
210,2,7,filler,filler_25,,/+/The suitcase which Mike bought has been broken down by his son./,Has the suitcase been broken by Mike?,N,,0,13,Mike,9,2,4,12,1,4,12,457,1562924577635,N,4291,1
210,2,7,filler,filler_25,,/+/The suitcase which Mike bought has been broken down by his son./,Has the suitcase been broken by Mike?,N,,0,13,bought,10,2,5,12,1,5,12,784,1562924578419,N,4291,1
210,2,7,filler,filler_25,,/+/The suitcase which Mike bought has been broken down by his son./,Has the suitcase been broken by Mike?,N,,0,13,has,11,2,6,12,1,6,12,456,1562924578875,N,4291,1
210,2,7,filler,filler_25,,/+/The suitcase which Mike bought has been broken down by his son./,Has the suitcase been broken by Mike?,N,,0,13,been,12,2,7,12,1,7,12,552,1562924579427,N,4291,1
210,2,7,filler,filler_25,,/+/The suitcase which Mike bought has been broken down by his son./,Has the suitcase been broken by Mike?,N,,0,13,broken,13,2,8,12,1,8,12,608,1562924580035,N,4291,1
210,2,7,filler,filler_25,,/+/The suitcase which Mike bought has been broken down by his son./,Has the suitcase been broken by Mike?,N,,0,13,down,14,2,9,12,1,9,12,448,1562924580483,N,4291,1
210,2,7,filler,filler_25,,/+/The suitcase which Mike bought has been broken down by his son./,Has the suitcase been broken by Mike?,N,,0,13,by,15,2,10,12,1,10,12,480,1562924580963,N,4291,1
210,2,7,filler,filler_25,,/+/The suitcase which Mike bought has been broken down by his son./,Has the suitcase been broken by Mike?,N,,0,13,his,16,2,11,12,1,11,12,496,1562924581459,N,4291,1
210,2,7,filler,filler_25,,/+/The suitcase which Mike bought has been broken down by his son./,Has the suitcase been broken by Mike?,N,,0,13,son.,17,2,12,12,1,12,12,920,1562924582379,N,4291,1
210,2,8,filler,filler_24,,/+/The roommate has married the man who comes from the west of China./,Has the roommate married?,Y,,0,14,+,1,1,1,1,1,1,1,615,1562924587787,Y,2900,1
210,2,8,filler,filler_24,,/+/The roommate has married the man who comes from the west of China./,Has the roommate married?,Y,,0,14,The,2,2,1,13,1,1,13,344,1562924588131,Y,2900,1
210,2,8,filler,filler_24,,/+/The roommate has married the man who comes from the west of China./,Has the roommate married?,Y,,0,14,roommate,3,2,2,13,1,2,13,808,1562924588939,Y,2900,1
210,2,8,filler,filler_24,,/+/The roommate has married the man who comes from the west of China./,Has the roommate married?,Y,,0,14,has,4,2,3,13,1,3,13,520,1562924589459,Y,2900,1
210,2,8,filler,filler_24,,/+/The roommate has married the man who comes from the west of China./,Has the roommate married?,Y,,0,14,married,5,2,4,13,1,4,13,807,1562924590266,Y,2900,1
210,2,8,filler,filler_24,,/+/The roommate has married the man who comes from the west of China./,Has the roommate married?,Y,,0,14,the,6,2,5,13,1,5,13,440,1562924590707,Y,2900,1
210,2,8,filler,filler_24,,/+/The roommate has married the man who comes from the west of China./,Has the roommate married?,Y,,0,14,man,7,2,6,13,1,6,13,488,1562924591195,Y,2900,1
210,2,8,filler,filler_24,,/+/The roommate has married the man who comes from the west of China./,Has the roommate married?,Y,,0,14,who,8,2,7,13,1,7,13,496,1562924591691,Y,2900,1
210,2,8,filler,filler_24,,/+/The roommate has married the man who comes from the west of China./,Has the roommate married?,Y,,0,14,comes,9,2,8,13,1,8,13,488,1562924592179,Y,2900,1
210,2,8,filler,filler_24,,/+/The roommate has married the man who comes from the west of China./,Has the roommate married?,Y,,0,14,from,10,2,9,13,1,9,13,544,1562924592723,Y,2900,1
210,2,8,filler,filler_24,,/+/The roommate has married the man who comes from the west of China./,Has the roommate married?,Y,,0,14,the,11,2,10,13,1,10,13,416,1562924593139,Y,2900,1
210,2,8,filler,filler_24,,/+/The roommate has married the man who comes from the west of China./,Has the roommate married?,Y,,0,14,west,12,2,11,13,1,11,13,608,1562924593747,Y,2900,1
210,2,8,filler,filler_24,,/+/The roommate has married the man who comes from the west of China./,Has the roommate married?,Y,,0,14,of,13,2,12,13,1,12,13,464,1562924594211,Y,2900,1
210,2,8,filler,filler_24,,/+/The roommate has married the man who comes from the west of China./,Has the roommate married?,Y,,0,14,China.,14,2,13,13,1,13,13,544,1562924594755,Y,2900,1
210,2,9,target,target_15,C,/+/The confused student * who was * asked about a question * lowered * his head silently./,Did the student ask about a question?,N,,0,15,+,1,1,1,1,1,1,1,1334,1562924599490,N,3676,1
210,2,9,target,target_15,C,/+/The confused student * who was * asked about a question * lowered * his head silently./,Did the student ask about a question?,N,,0,15,The,2,2,1,13,1,1,3,377,1562924599867,N,3676,1
210,2,9,target,target_15,C,/+/The confused student * who was * asked about a question * lowered * his head silently./,Did the student ask about a question?,N,,0,15,confused,3,2,2,13,1,2,3,327,1562924600194,N,3676,1
210,2,9,target,target_15,C,/+/The confused student * who was * asked about a question * lowered * his head silently./,Did the student ask about a question?,N,,0,15,student,4,2,3,13,1,3,3,503,1562924600698,N,3676,1
210,2,9,target,target_15,C,/+/The confused student * who was * asked about a question * lowered * his head silently./,Did the student ask about a question?,N,,0,15,confused,5,2,2,13,1,2,3,543,1562924601242,N,3676,1
210,2,9,target,target_15,C,/+/The confused student * who was * asked about a question * lowered * his head silently./,Did the student ask about a question?,N,,0,15,student,6,2,3,13,1,3,3,279,1562924601522,N,3676,1
210,2,9,target,target_15,C,/+/The confused student * who was * asked about a question * lowered * his head silently./,Did the student ask about a question?,N,,0,15,who,7,2,4,13,2,1,2,488,1562924602010,N,3676,1
210,2,9,target,target_15,C,/+/The confused student * who was * asked about a question * lowered * his head silently./,Did the student ask about a question?,N,,0,15,was,8,2,5,13,2,2,2,943,1562924602954,N,3676,1
210,2,9,target,target_15,C,/+/The confused student * who was * asked about a question * lowered * his head silently./,Did the student ask about a question?,N,,0,15,asked,9,2,6,13,3,1,4,511,1562924603466,N,3676,1
210,2,9,target,target_15,C,/+/The confused student * who was * asked about a question * lowered * his head silently./,Did the student ask about a question?,N,,0,15,about,10,2,7,13,3,2,4,520,1562924603986,N,3676,1
210,2,9,target,target_15,C,/+/The confused student * who was * asked about a question * lowered * his head silently./,Did the student ask about a question?,N,,0,15,a,11,2,8,13,3,3,4,423,1562924604410,N,3676,1
210,2,9,target,target_15,C,/+/The confused student * who was * asked about a question * lowered * his head silently./,Did the student ask about a question?,N,,0,15,question,12,2,9,13,3,4,4,847,1562924605258,N,3676,1
210,2,9,target,target_15,C,/+/The confused student * who was * asked about a question * lowered * his head silently./,Did the student ask about a question?,N,,0,15,lowered,13,2,10,13,4,1,1,1176,1562924606434,N,3676,1
210,2,9,target,target_15,C,/+/The confused student * who was * asked about a question * lowered * his head silently./,Did the student ask about a question?,N,,0,15,his,14,2,11,13,5,1,3,487,1562924606922,N,3676,1
210,2,9,target,target_15,C,/+/The confused student * who was * asked about a question * lowered * his head silently./,Did the student ask about a question?,N,,0,15,head,15,2,12,13,5,2,3,511,1562924607434,N,3676,1
210,2,9,target,target_15,C,/+/The confused student * who was * asked about a question * lowered * his head silently./,Did the student ask about a question?,N,,0,15,his,16,2,11,13,5,1,3,216,1562924607650,N,3676,1
210,2,9,target,target_15,C,/+/The confused student * who was * asked about a question * lowered * his head silently./,Did the student ask about a question?,N,,0,15,lowered,17,2,10,13,4,1,1,808,1562924608458,N,3676,1
210,2,9,target,target_15,C,/+/The confused student * who was * asked about a question * lowered * his head silently./,Did the student ask about a question?,N,,0,15,his,18,2,11,13,5,1,3,343,1562924608802,N,3676,1
210,2,9,target,target_15,C,/+/The confused student * who was * asked about a question * lowered * his head silently./,Did the student ask about a question?,N,,0,15,head,19,2,12,13,5,2,3,664,1562924609466,N,3676,1
210,2,9,target,target_15,C,/+/The confused student * who was * asked about a question * lowered * his head silently./,Did the student ask about a question?,N,,0,15,silently.,20,2,13,13,5,3,3,1192,1562924610658,N,3676,1
210,2,10,filler,filler_22,,/+/The girl's life was saved because the doctor acted so well./,Did the girl die?,N,,0,16,+,1,1,1,1,1,1,1,1431,1562924616266,N,2877,1
210,2,10,filler,filler_22,,/+/The girl's life was saved because the doctor acted so well./,Did the girl die?,N,,0,16,The,2,2,1,11,1,1,11,376,1562924616642,N,2877,1
210,2,10,filler,filler_22,,/+/The girl's life was saved because the doctor acted so well./,Did the girl die?,N,,0,16,girl's,3,2,2,11,1,2,11,304,1562924616946,N,2877,1
210,2,10,filler,filler_22,,/+/The girl's life was saved because the doctor acted so well./,Did the girl die?,N,,0,16,life,4,2,3,11,1,3,11,520,1562924617466,N,2877,1
210,2,10,filler,filler_22,,/+/The girl's life was saved because the doctor acted so well./,Did the girl die?,N,,0,16,was,5,2,4,11,1,4,11,360,1562924617826,N,2877,1
210,2,10,filler,filler_22,,/+/The girl's life was saved because the doctor acted so well./,Did the girl die?,N,,0,16,life,6,2,3,11,1,3,11,168,1562924617994,N,2877,1
210,2,10,filler,filler_22,,/+/The girl's life was saved because the doctor acted so well./,Did the girl die?,N,,0,16,girl's,7,2,2,11,1,2,11,528,1562924618522,N,2877,1
210,2,10,filler,filler_22,,/+/The girl's life was saved because the doctor acted so well./,Did the girl die?,N,,0,16,life,8,2,3,11,1,3,11,223,1562924618745,N,2877,1
210,2,10,filler,filler_22,,/+/The girl's life was saved because the doctor acted so well./,Did the girl die?,N,,0,16,was,9,2,4,11,1,4,11,632,1562924619378,N,2877,1
210,2,10,filler,filler_22,,/+/The girl's life was saved because the doctor acted so well./,Did the girl die?,N,,0,16,saved,10,2,5,11,1,5,11,792,1562924620170,N,2877,1
210,2,10,filler,filler_22,,/+/The girl's life was saved because the doctor acted so well./,Did the girl die?,N,,0,16,because,11,2,6,11,1,6,11,704,1562924620874,N,2877,1
210,2,10,filler,filler_22,,/+/The girl's life was saved because the doctor acted so well./,Did the girl die?,N,,0,16,the,12,2,7,11,1,7,11,536,1562924621410,N,2877,1
210,2,10,filler,filler_22,,/+/The girl's life was saved because the doctor acted so well./,Did the girl die?,N,,0,16,doctor,13,2,8,11,1,8,11,536,1562924621946,N,2877,1
210,2,10,filler,filler_22,,/+/The girl's life was saved because the doctor acted so well./,Did the girl die?,N,,0,16,acted,14,2,9,11,1,9,11,368,1562924622314,N,2877,1
210,2,10,filler,filler_22,,/+/The girl's life was saved because the doctor acted so well./,Did the girl die?,N,,0,16,so,15,2,10,11,1,10,11,585,1562924622899,N,2877,1
210,2,10,filler,filler_22,,/+/The girl's life was saved because the doctor acted so well./,Did the girl die?,N,,0,16,acted,16,2,9,11,1,9,11,184,1562924623083,N,2877,1
210,2,10,filler,filler_22,,/+/The girl's life was saved because the doctor acted so well./,Did the girl die?,N,,0,16,doctor,17,2,8,11,1,8,11,272,1562924623355,N,2877,1
210,2,10,filler,filler_22,,/+/The girl's life was saved because the doctor acted so well./,Did the girl die?,N,,0,16,acted,18,2,9,11,1,9,11,608,1562924623963,N,2877,1
210,2,10,filler,filler_22,,/+/The girl's life was saved because the doctor acted so well./,Did the girl die?,N,,0,16,so,19,2,10,11,1,10,11,568,1562924624531,N,2877,1
210,2,10,filler,filler_22,,/+/The girl's life was saved because the doctor acted so well./,Did the girl die?,N,,0,16,acted,20,2,9,11,1,9,11,343,1562924624874,N,2877,1
210,2,10,filler,filler_22,,/+/The girl's life was saved because the doctor acted so well./,Did the girl die?,N,,0,16,so,21,2,10,11,1,10,11,896,1562924625770,N,2877,1
210,2,10,filler,filler_22,,/+/The girl's life was saved because the doctor acted so well./,Did the girl die?,N,,0,16,acted,22,2,9,11,1,9,11,321,1562924626091,N,2877,1
210,2,10,filler,filler_22,,/+/The girl's life was saved because the doctor acted so well./,Did the girl die?,N,,0,16,doctor,23,2,8,11,1,8,11,552,1562924626643,N,2877,1
210,2,10,filler,filler_22,,/+/The girl's life was saved because the doctor acted so well./,Did the girl die?,N,,0,16,acted,24,2,9,11,1,9,11,304,1562924626947,N,2877,1
210,2,10,filler,filler_22,,/+/The girl's life was saved because the doctor acted so well./,Did the girl die?,N,,0,16,so,25,2,10,11,1,10,11,488,1562924627435,N,2877,1
210,2,10,filler,filler_22,,/+/The girl's life was saved because the doctor acted so well./,Did the girl die?,N,,0,16,well.,26,2,11,11,1,11,11,503,1562924627938,N,2877,1
210,2,11,target,target_4,C,/+/The convicted criminal * who was * watched at the railway station * was * following the boy./,Did someone watch the criminal?,Y,,0,17,+,1,1,1,1,1,1,1,654,1562924631970,Y,4811,1
210,2,11,target,target_4,C,/+/The convicted criminal * who was * watched at the railway station * was * following the boy./,Did someone watch the criminal?,Y,,0,17,The,2,2,1,14,1,1,3,385,1562924632355,Y,4811,1
210,2,11,target,target_4,C,/+/The convicted criminal * who was * watched at the railway station * was * following the boy./,Did someone watch the criminal?,Y,,0,17,convicted,3,2,2,14,1,2,3,1655,1562924634010,Y,4811,1
210,2,11,target,target_4,C,/+/The convicted criminal * who was * watched at the railway station * was * following the boy./,Did someone watch the criminal?,Y,,0,17,criminal,4,2,3,14,1,3,3,176,1562924634186,Y,4811,1
210,2,11,target,target_4,C,/+/The convicted criminal * who was * watched at the railway station * was * following the boy./,Did someone watch the criminal?,Y,,0,17,who,5,2,4,14,2,1,2,455,1562924634642,Y,4811,1
210,2,11,target,target_4,C,/+/The convicted criminal * who was * watched at the railway station * was * following the boy./,Did someone watch the criminal?,Y,,0,17,criminal,6,2,3,14,1,3,3,608,1562924635251,Y,4811,1
210,2,11,target,target_4,C,/+/The convicted criminal * who was * watched at the railway station * was * following the boy./,Did someone watch the criminal?,Y,,0,17,who,7,2,4,14,2,1,2,399,1562924635650,Y,4811,1
210,2,11,target,target_4,C,/+/The convicted criminal * who was * watched at the railway station * was * following the boy./,Did someone watch the criminal?,Y,,0,17,was,8,2,5,14,2,2,2,455,1562924636106,Y,4811,1
210,2,11,target,target_4,C,/+/The convicted criminal * who was * watched at the railway station * was * following the boy./,Did someone watch the criminal?,Y,,0,17,watched,9,2,6,14,3,1,5,567,1562924636674,Y,4811,1
210,2,11,target,target_4,C,/+/The convicted criminal * who was * watched at the railway station * was * following the boy./,Did someone watch the criminal?,Y,,0,17,at,10,2,7,14,3,2,5,383,1562924637058,Y,4811,1
210,2,11,target,target_4,C,/+/The convicted criminal * who was * watched at the railway station * was * following the boy./,Did someone watch the criminal?,Y,,0,17,the,11,2,8,14,3,3,5,360,1562924637418,Y,4811,1
210,2,11,target,target_4,C,/+/The convicted criminal * who was * watched at the railway station * was * following the boy./,Did someone watch the criminal?,Y,,0,17,railway,12,2,9,14,3,4,5,727,1562924638146,Y,4811,1
210,2,11,target,target_4,C,/+/The convicted criminal * who was * watched at the railway station * was * following the boy./,Did someone watch the criminal?,Y,,0,17,station,13,2,10,14,3,5,5,504,1562924638650,Y,4811,1
210,2,11,target,target_4,C,/+/The convicted criminal * who was * watched at the railway station * was * following the boy./,Did someone watch the criminal?,Y,,0,17,was,14,2,11,14,4,1,1,392,1562924639042,Y,4811,1
210,2,11,target,target_4,C,/+/The convicted criminal * who was * watched at the railway station * was * following the boy./,Did someone watch the criminal?,Y,,0,17,following,15,2,12,14,5,1,3,512,1562924639554,Y,4811,1
210,2,11,target,target_4,C,/+/The convicted criminal * who was * watched at the railway station * was * following the boy./,Did someone watch the criminal?,Y,,0,17,the,16,2,13,14,5,2,3,471,1562924640026,Y,4811,1
210,2,11,target,target_4,C,/+/The convicted criminal * who was * watched at the railway station * was * following the boy./,Did someone watch the criminal?,Y,,0,17,boy.,17,2,14,14,5,3,3,432,1562924640458,Y,4811,1
210,2,12,filler,filler_35,,/+/The company building was completed successfully in the third quarter./,Was the company building completed?,Y,,0,18,+,1,1,1,1,1,1,1,776,1562924646555,Y,7027,1
210,2,12,filler,filler_35,,/+/The company building was completed successfully in the third quarter./,Was the company building completed?,Y,,0,18,The,2,2,1,10,1,1,10,311,1562924646866,Y,7027,1
210,2,12,filler,filler_35,,/+/The company building was completed successfully in the third quarter./,Was the company building completed?,Y,,0,18,company,3,2,2,10,1,2,10,240,1562924647106,Y,7027,1
210,2,12,filler,filler_35,,/+/The company building was completed successfully in the third quarter./,Was the company building completed?,Y,,0,18,building,4,2,3,10,1,3,10,528,1562924647634,Y,7027,1
210,2,12,filler,filler_35,,/+/The company building was completed successfully in the third quarter./,Was the company building completed?,Y,,0,18,company,5,2,2,10,1,2,10,352,1562924647986,Y,7027,1
210,2,12,filler,filler_35,,/+/The company building was completed successfully in the third quarter./,Was the company building completed?,Y,,0,18,building,6,2,3,10,1,3,10,800,1562924648786,Y,7027,1
210,2,12,filler,filler_35,,/+/The company building was completed successfully in the third quarter./,Was the company building completed?,Y,,0,18,was,7,2,4,10,1,4,10,688,1562924649474,Y,7027,1
210,2,12,filler,filler_35,,/+/The company building was completed successfully in the third quarter./,Was the company building completed?,Y,,0,18,completed,8,2,5,10,1,5,10,920,1562924650394,Y,7027,1
210,2,12,filler,filler_35,,/+/The company building was completed successfully in the third quarter./,Was the company building completed?,Y,,0,18,successfully,9,2,6,10,1,6,10,815,1562924651209,Y,7027,1
210,2,12,filler,filler_35,,/+/The company building was completed successfully in the third quarter./,Was the company building completed?,Y,,0,18,in,10,2,7,10,1,7,10,425,1562924651634,Y,7027,1
210,2,12,filler,filler_35,,/+/The company building was completed successfully in the third quarter./,Was the company building completed?,Y,,0,18,the,11,2,8,10,1,8,10,360,1562924651994,Y,7027,1
210,2,12,filler,filler_35,,/+/The company building was completed successfully in the third quarter./,Was the company building completed?,Y,,0,18,third,12,2,9,10,1,9,10,464,1562924652458,Y,7027,1
210,2,12,filler,filler_35,,/+/The company building was completed successfully in the third quarter./,Was the company building completed?,Y,,0,18,quarter.,13,2,10,10,1,10,10,464,1562924652922,Y,7027,1
210,2,13,target,target_8,G,/+/The older kids * showed all the dances * felt * amazed at the party./,Did the older kids show the dances?,N,,0,19,+,1,1,1,1,1,1,1,527,1562924660978,Y,4602,0
210,2,13,target,target_8,G,/+/The older kids * showed all the dances * felt * amazed at the party./,Did the older kids show the dances?,N,,0,19,The,2,2,1,12,1,1,3,359,1562924661337,Y,4602,0
210,2,13,target,target_8,G,/+/The older kids * showed all the dances * felt * amazed at the party./,Did the older kids show the dances?,N,,0,19,older,3,2,2,12,1,2,3,329,1562924661666,Y,4602,0
210,2,13,target,target_8,G,/+/The older kids * showed all the dances * felt * amazed at the party./,Did the older kids show the dances?,N,,0,19,kids,4,2,3,12,1,3,3,576,1562924662242,Y,4602,0
210,2,13,target,target_8,G,/+/The older kids * showed all the dances * felt * amazed at the party./,Did the older kids show the dances?,N,,0,19,showed,5,2,4,12,2,1,4,720,1562924662962,Y,4602,0
210,2,13,target,target_8,G,/+/The older kids * showed all the dances * felt * amazed at the party./,Did the older kids show the dances?,N,,0,19,all,6,2,5,12,2,2,4,488,1562924663450,Y,4602,0
210,2,13,target,target_8,G,/+/The older kids * showed all the dances * felt * amazed at the party./,Did the older kids show the dances?,N,,0,19,the,7,2,6,12,2,3,4,440,1562924663890,Y,4602,0
210,2,13,target,target_8,G,/+/The older kids * showed all the dances * felt * amazed at the party./,Did the older kids show the dances?,N,,0,19,dances,8,2,7,12,2,4,4,736,1562924664626,Y,4602,0
210,2,13,target,target_8,G,/+/The older kids * showed all the dances * felt * amazed at the party./,Did the older kids show the dances?,N,,0,19,felt,9,2,8,12,3,1,1,936,1562924665562,Y,4602,0
210,2,13,target,target_8,G,/+/The older kids * showed all the dances * felt * amazed at the party./,Did the older kids show the dances?,N,,0,19,amazed,10,2,9,12,4,1,4,624,1562924666186,Y,4602,0
210,2,13,target,target_8,G,/+/The older kids * showed all the dances * felt * amazed at the party./,Did the older kids show the dances?,N,,0,19,at,11,2,10,12,4,2,4,480,1562924666666,Y,4602,0
210,2,13,target,target_8,G,/+/The older kids * showed all the dances * felt * amazed at the party./,Did the older kids show the dances?,N,,0,19,the,12,2,11,12,4,3,4,432,1562924667098,Y,4602,0
210,2,13,target,target_8,G,/+/The older kids * showed all the dances * felt * amazed at the party./,Did the older kids show the dances?,N,,0,19,party.,13,2,12,12,4,4,4,750,1562924667850,Y,4602,0
210,2,14,filler,filler_27,,/+/The letter that came this morning was from a friendly classmate./,Did the letter arrive this morning?,Y,,0,20,+,1,1,1,1,1,1,1,502,1562924673457,Y,4402,1
210,2,14,filler,filler_27,,/+/The letter that came this morning was from a friendly classmate./,Did the letter arrive this morning?,Y,,0,20,The,2,2,1,11,1,1,11,297,1562924673754,Y,4402,1
210,2,14,filler,filler_27,,/+/The letter that came this morning was from a friendly classmate./,Did the letter arrive this morning?,Y,,0,20,letter,3,2,2,11,1,2,11,1184,1562924674938,Y,4402,1
210,2,14,filler,filler_27,,/+/The letter that came this morning was from a friendly classmate./,Did the letter arrive this morning?,Y,,0,20,that,4,2,3,11,1,3,11,424,1562924675362,Y,4402,1
210,2,14,filler,filler_27,,/+/The letter that came this morning was from a friendly classmate./,Did the letter arrive this morning?,Y,,0,20,came,5,2,4,11,1,4,11,664,1562924676026,Y,4402,1
210,2,14,filler,filler_27,,/+/The letter that came this morning was from a friendly classmate./,Did the letter arrive this morning?,Y,,0,20,that,6,2,3,11,1,3,11,503,1562924676529,Y,4402,1
210,2,14,filler,filler_27,,/+/The letter that came this morning was from a friendly classmate./,Did the letter arrive this morning?,Y,,0,20,letter,7,2,2,11,1,2,11,329,1562924676858,Y,4402,1
210,2,14,filler,filler_27,,/+/The letter that came this morning was from a friendly classmate./,Did the letter arrive this morning?,Y,,0,20,that,8,2,3,11,1,3,11,296,1562924677154,Y,4402,1
210,2,14,filler,filler_27,,/+/The letter that came this morning was from a friendly classmate./,Did the letter arrive this morning?,Y,,0,20,came,9,2,4,11,1,4,11,576,1562924677730,Y,4402,1
210,2,14,filler,filler_27,,/+/The letter that came this morning was from a friendly classmate./,Did the letter arrive this morning?,Y,,0,20,this,10,2,5,11,1,5,11,911,1562924678641,Y,4402,1
210,2,14,filler,filler_27,,/+/The letter that came this morning was from a friendly classmate./,Did the letter arrive this morning?,Y,,0,20,morning,11,2,6,11,1,6,11,648,1562924679289,Y,4402,1
210,2,14,filler,filler_27,,/+/The letter that came this morning was from a friendly classmate./,Did the letter arrive this morning?,Y,,0,20,was,12,2,7,11,1,7,11,527,1562924679817,Y,4402,1
210,2,14,filler,filler_27,,/+/The letter that came this morning was from a friendly classmate./,Did the letter arrive this morning?,Y,,0,20,from,13,2,8,11,1,8,11,695,1562924680513,Y,4402,1
210,2,14,filler,filler_27,,/+/The letter that came this morning was from a friendly classmate./,Did the letter arrive this morning?,Y,,0,20,a,14,2,9,11,1,9,11,583,1562924681097,Y,4402,1
210,2,14,filler,filler_27,,/+/The letter that came this morning was from a friendly classmate./,Did the letter arrive this morning?,Y,,0,20,friendly,15,2,10,11,1,10,11,919,1562924682017,Y,4402,1
210,2,14,filler,filler_27,,/+/The letter that came this morning was from a friendly classmate./,Did the letter arrive this morning?,Y,,0,20,classmate.,16,2,11,11,1,11,11,1833,1562924683851,Y,4402,1
210,2,15,filler,filler_15,,/+/The book contained many useful information which could benefit the health./,Could the book be helpful for health?,Y,,0,21,+,1,1,1,1,1,1,1,376,1562924689131,Y,2260,1
210,2,15,filler,filler_15,,/+/The book contained many useful information which could benefit the health./,Could the book be helpful for health?,Y,,0,21,The,2,2,1,11,1,1,11,360,1562924689491,Y,2260,1
210,2,15,filler,filler_15,,/+/The book contained many useful information which could benefit the health./,Could the book be helpful for health?,Y,,0,21,book,3,2,2,11,1,2,11,496,1562924689987,Y,2260,1
210,2,15,filler,filler_15,,/+/The book contained many useful information which could benefit the health./,Could the book be helpful for health?,Y,,0,21,contained,4,2,3,11,1,3,11,1520,1562924691507,Y,2260,1
210,2,15,filler,filler_15,,/+/The book contained many useful information which could benefit the health./,Could the book be helpful for health?,Y,,0,21,many,5,2,4,11,1,4,11,1360,1562924692867,Y,2260,1
210,2,15,filler,filler_15,,/+/The book contained many useful information which could benefit the health./,Could the book be helpful for health?,Y,,0,21,useful,6,2,5,11,1,5,11,720,1562924693587,Y,2260,1
210,2,15,filler,filler_15,,/+/The book contained many useful information which could benefit the health./,Could the book be helpful for health?,Y,,0,21,information,7,2,6,11,1,6,11,624,1562924694211,Y,2260,1
210,2,15,filler,filler_15,,/+/The book contained many useful information which could benefit the health./,Could the book be helpful for health?,Y,,0,21,which,8,2,7,11,1,7,11,1064,1562924695275,Y,2260,1
210,2,15,filler,filler_15,,/+/The book contained many useful information which could benefit the health./,Could the book be helpful for health?,Y,,0,21,could,9,2,8,11,1,8,11,648,1562924695923,Y,2260,1
210,2,15,filler,filler_15,,/+/The book contained many useful information which could benefit the health./,Could the book be helpful for health?,Y,,0,21,benefit,10,2,9,11,1,9,11,943,1562924696866,Y,2260,1
210,2,15,filler,filler_15,,/+/The book contained many useful information which could benefit the health./,Could the book be helpful for health?,Y,,0,21,the,11,2,10,11,1,10,11,545,1562924697411,Y,2260,1
210,2,15,filler,filler_15,,/+/The book contained many useful information which could benefit the health./,Could the book be helpful for health?,Y,,0,21,health.,12,2,11,11,1,11,11,648,1562924698059,Y,2260,1
210,2,16,target,target_6,C,/+/The six volunteers * who were * taught the complicated procedure * became * very good students./,Did the volunteers teach the procedure?,N,,0,22,+,1,1,1,1,1,1,1,357,1562924701179,N,4620,1
210,2,16,target,target_6,C,/+/The six volunteers * who were * taught the complicated procedure * became * very good students./,Did the volunteers teach the procedure?,N,,0,22,The,2,2,1,13,1,1,3,384,1562924701563,N,4620,1
210,2,16,target,target_6,C,/+/The six volunteers * who were * taught the complicated procedure * became * very good students./,Did the volunteers teach the procedure?,N,,0,22,six,3,2,2,13,1,2,3,415,1562924701978,N,4620,1
210,2,16,target,target_6,C,/+/The six volunteers * who were * taught the complicated procedure * became * very good students./,Did the volunteers teach the procedure?,N,,0,22,volunteers,4,2,3,13,1,3,3,857,1562924702835,N,4620,1
210,2,16,target,target_6,C,/+/The six volunteers * who were * taught the complicated procedure * became * very good students./,Did the volunteers teach the procedure?,N,,0,22,who,5,2,4,13,2,1,2,448,1562924703283,N,4620,1
210,2,16,target,target_6,C,/+/The six volunteers * who were * taught the complicated procedure * became * very good students./,Did the volunteers teach the procedure?,N,,0,22,were,6,2,5,13,2,2,2,552,1562924703835,N,4620,1
210,2,16,target,target_6,C,/+/The six volunteers * who were * taught the complicated procedure * became * very good students./,Did the volunteers teach the procedure?,N,,0,22,taught,7,2,6,13,3,1,4,1008,1562924704843,N,4620,1
210,2,16,target,target_6,C,/+/The six volunteers * who were * taught the complicated procedure * became * very good students./,Did the volunteers teach the procedure?,N,,0,22,the,8,2,7,13,3,2,4,752,1562924705595,N,4620,1
210,2,16,target,target_6,C,/+/The six volunteers * who were * taught the complicated procedure * became * very good students./,Did the volunteers teach the procedure?,N,,0,22,complicated,9,2,8,13,3,3,4,2544,1562924708139,N,4620,1
210,2,16,target,target_6,C,/+/The six volunteers * who were * taught the complicated procedure * became * very good students./,Did the volunteers teach the procedure?,N,,0,22,procedure,10,2,9,13,3,4,4,1416,1562924709555,N,4620,1
210,2,16,target,target_6,C,/+/The six volunteers * who were * taught the complicated procedure * became * very good students./,Did the volunteers teach the procedure?,N,,0,22,became,11,2,10,13,4,1,1,648,1562924710203,N,4620,1
210,2,16,target,target_6,C,/+/The six volunteers * who were * taught the complicated procedure * became * very good students./,Did the volunteers teach the procedure?,N,,0,22,very,12,2,11,13,5,1,3,1120,1562924711323,N,4620,1
210,2,16,target,target_6,C,/+/The six volunteers * who were * taught the complicated procedure * became * very good students./,Did the volunteers teach the procedure?,N,,0,22,became,13,2,10,13,4,1,1,448,1562924711771,N,4620,1
210,2,16,target,target_6,C,/+/The six volunteers * who were * taught the complicated procedure * became * very good students./,Did the volunteers teach the procedure?,N,,0,22,very,14,2,11,13,5,1,3,359,1562924712130,N,4620,1
210,2,16,target,target_6,C,/+/The six volunteers * who were * taught the complicated procedure * became * very good students./,Did the volunteers teach the procedure?,N,,0,22,good,15,2,12,13,5,2,3,673,1562924712803,N,4620,1
210,2,16,target,target_6,C,/+/The six volunteers * who were * taught the complicated procedure * became * very good students./,Did the volunteers teach the procedure?,N,,0,22,students.,16,2,13,13,5,3,3,592,1562924713395,N,4620,1
210,2,17,filler,filler_5,,/+/The author said that the new book was based on a real story./,Was the book entirely imaginary? ,N,,0,23,+,1,1,1,1,1,1,1,359,1562924718874,N,3906,1
210,2,17,filler,filler_5,,/+/The author said that the new book was based on a real story./,Was the book entirely imaginary? ,N,,0,23,The,2,2,1,13,1,1,13,327,1562924719202,N,3906,1
210,2,17,filler,filler_5,,/+/The author said that the new book was based on a real story./,Was the book entirely imaginary? ,N,,0,23,author,3,2,2,13,1,2,13,624,1562924719826,N,3906,1
210,2,17,filler,filler_5,,/+/The author said that the new book was based on a real story./,Was the book entirely imaginary? ,N,,0,23,said,4,2,3,13,1,3,13,2207,1562924722034,N,3906,1
210,2,17,filler,filler_5,,/+/The author said that the new book was based on a real story./,Was the book entirely imaginary? ,N,,0,23,that,5,2,4,13,1,4,13,559,1562924722594,N,3906,1
210,2,17,filler,filler_5,,/+/The author said that the new book was based on a real story./,Was the book entirely imaginary? ,N,,0,23,the,6,2,5,13,1,5,13,720,1562924723314,N,3906,1
210,2,17,filler,filler_5,,/+/The author said that the new book was based on a real story./,Was the book entirely imaginary? ,N,,0,23,new,7,2,6,13,1,6,13,712,1562924724026,N,3906,1
210,2,17,filler,filler_5,,/+/The author said that the new book was based on a real story./,Was the book entirely imaginary? ,N,,0,23,book,8,2,7,13,1,7,13,608,1562924724634,N,3906,1
210,2,17,filler,filler_5,,/+/The author said that the new book was based on a real story./,Was the book entirely imaginary? ,N,,0,23,was,9,2,8,13,1,8,13,552,1562924725186,N,3906,1
210,2,17,filler,filler_5,,/+/The author said that the new book was based on a real story./,Was the book entirely imaginary? ,N,,0,23,based,10,2,9,13,1,9,13,872,1562924726058,N,3906,1
210,2,17,filler,filler_5,,/+/The author said that the new book was based on a real story./,Was the book entirely imaginary? ,N,,0,23,on,11,2,10,13,1,10,13,544,1562924726602,N,3906,1
210,2,17,filler,filler_5,,/+/The author said that the new book was based on a real story./,Was the book entirely imaginary? ,N,,0,23,a,12,2,11,13,1,11,13,496,1562924727098,N,3906,1
210,2,17,filler,filler_5,,/+/The author said that the new book was based on a real story./,Was the book entirely imaginary? ,N,,0,23,real,13,2,12,13,1,12,13,440,1562924727538,N,3906,1
210,2,17,filler,filler_5,,/+/The author said that the new book was based on a real story./,Was the book entirely imaginary? ,N,,0,23,story.,14,2,13,13,1,13,13,424,1562924727962,N,3906,1
210,2,18,filler,filler_38,,/+/The gatekeeper refused to hand over the door key to the man./,Did the gatekeeper refuse to hand over the key?,Y,,0,24,+,1,1,1,1,1,1,1,752,1562924733122,Y,5396,1
210,2,18,filler,filler_38,,/+/The gatekeeper refused to hand over the door key to the man./,Did the gatekeeper refuse to hand over the key?,Y,,0,24,The,2,2,1,12,1,1,12,360,1562924733482,Y,5396,1
210,2,18,filler,filler_38,,/+/The gatekeeper refused to hand over the door key to the man./,Did the gatekeeper refuse to hand over the key?,Y,,0,24,gatekeeper,3,2,2,12,1,2,12,216,1562924733698,Y,5396,1
210,2,18,filler,filler_38,,/+/The gatekeeper refused to hand over the door key to the man./,Did the gatekeeper refuse to hand over the key?,Y,,0,24,refused,4,2,3,12,1,3,12,392,1562924734090,Y,5396,1
210,2,18,filler,filler_38,,/+/The gatekeeper refused to hand over the door key to the man./,Did the gatekeeper refuse to hand over the key?,Y,,0,24,gatekeeper,5,2,2,12,1,2,12,1448,1562924735538,Y,5396,1
210,2,18,filler,filler_38,,/+/The gatekeeper refused to hand over the door key to the man./,Did the gatekeeper refuse to hand over the key?,Y,,0,24,refused,6,2,3,12,1,3,12,903,1562924736441,Y,5396,1
210,2,18,filler,filler_38,,/+/The gatekeeper refused to hand over the door key to the man./,Did the gatekeeper refuse to hand over the key?,Y,,0,24,to,7,2,4,12,1,4,12,537,1562924736978,Y,5396,1
210,2,18,filler,filler_38,,/+/The gatekeeper refused to hand over the door key to the man./,Did the gatekeeper refuse to hand over the key?,Y,,0,24,hand,8,2,5,12,1,5,12,608,1562924737586,Y,5396,1
210,2,18,filler,filler_38,,/+/The gatekeeper refused to hand over the door key to the man./,Did the gatekeeper refuse to hand over the key?,Y,,0,24,over,9,2,6,12,1,6,12,720,1562924738306,Y,5396,1
210,2,18,filler,filler_38,,/+/The gatekeeper refused to hand over the door key to the man./,Did the gatekeeper refuse to hand over the key?,Y,,0,24,the,10,2,7,12,1,7,12,504,1562924738810,Y,5396,1
210,2,18,filler,filler_38,,/+/The gatekeeper refused to hand over the door key to the man./,Did the gatekeeper refuse to hand over the key?,Y,,0,24,door,11,2,8,12,1,8,12,607,1562924739417,Y,5396,1
210,2,18,filler,filler_38,,/+/The gatekeeper refused to hand over the door key to the man./,Did the gatekeeper refuse to hand over the key?,Y,,0,24,key,12,2,9,12,1,9,12,689,1562924740106,Y,5396,1
210,2,18,filler,filler_38,,/+/The gatekeeper refused to hand over the door key to the man./,Did the gatekeeper refuse to hand over the key?,Y,,0,24,to,13,2,10,12,1,10,12,576,1562924740682,Y,5396,1
210,2,18,filler,filler_38,,/+/The gatekeeper refused to hand over the door key to the man./,Did the gatekeeper refuse to hand over the key?,Y,,0,24,the,14,2,11,12,1,11,12,496,1562924741178,Y,5396,1
210,2,18,filler,filler_38,,/+/The gatekeeper refused to hand over the door key to the man./,Did the gatekeeper refuse to hand over the key?,Y,,0,24,man.,15,2,12,12,1,12,12,592,1562924741770,Y,5396,1
210,2,19,filler,filler_37,,/+/The tiger was caught after it ate two persons within one week./,Was the tiger caught?,Y,,0,25,+,1,1,1,1,1,1,1,447,1562924748115,Y,3779,1
210,2,19,filler,filler_37,,/+/The tiger was caught after it ate two persons within one week./,Was the tiger caught?,Y,,0,25,The,2,2,1,12,1,1,12,519,1562924748634,Y,3779,1
210,2,19,filler,filler_37,,/+/The tiger was caught after it ate two persons within one week./,Was the tiger caught?,Y,,0,25,tiger,3,2,2,12,1,2,12,801,1562924749435,Y,3779,1
210,2,19,filler,filler_37,,/+/The tiger was caught after it ate two persons within one week./,Was the tiger caught?,Y,,0,25,was,4,2,3,12,1,3,12,672,1562924750107,Y,3779,1
210,2,19,filler,filler_37,,/+/The tiger was caught after it ate two persons within one week./,Was the tiger caught?,Y,,0,25,caught,5,2,4,12,1,4,12,1567,1562924751674,Y,3779,1
210,2,19,filler,filler_37,,/+/The tiger was caught after it ate two persons within one week./,Was the tiger caught?,Y,,0,25,after,6,2,5,12,1,5,12,721,1562924752395,Y,3779,1
210,2,19,filler,filler_37,,/+/The tiger was caught after it ate two persons within one week./,Was the tiger caught?,Y,,0,25,it,7,2,6,12,1,6,12,512,1562924752907,Y,3779,1
210,2,19,filler,filler_37,,/+/The tiger was caught after it ate two persons within one week./,Was the tiger caught?,Y,,0,25,ate,8,2,7,12,1,7,12,552,1562924753459,Y,3779,1
210,2,19,filler,filler_37,,/+/The tiger was caught after it ate two persons within one week./,Was the tiger caught?,Y,,0,25,two,9,2,8,12,1,8,12,776,1562924754235,Y,3779,1
210,2,19,filler,filler_37,,/+/The tiger was caught after it ate two persons within one week./,Was the tiger caught?,Y,,0,25,persons,10,2,9,12,1,9,12,736,1562924754971,Y,3779,1
210,2,19,filler,filler_37,,/+/The tiger was caught after it ate two persons within one week./,Was the tiger caught?,Y,,0,25,within,11,2,10,12,1,10,12,655,1562924755626,Y,3779,1
210,2,19,filler,filler_37,,/+/The tiger was caught after it ate two persons within one week./,Was the tiger caught?,Y,,0,25,one,12,2,11,12,1,11,12,433,1562924756059,Y,3779,1
210,2,19,filler,filler_37,,/+/The tiger was caught after it ate two persons within one week./,Was the tiger caught?,Y,,0,25,week.,13,2,12,12,1,12,12,872,1562924756931,Y,3779,1
210,2,20,target,target_7,G,/+/The old man * advised on the special diet * has * not responded./,Did the old man advise on the diet?,N,,0,26,+,1,1,1,1,1,1,1,591,1562924761802,N,5588,1
210,2,20,target,target_7,G,/+/The old man * advised on the special diet * has * not responded./,Did the old man advise on the diet?,N,,0,26,The,2,2,1,11,1,1,3,328,1562924762130,N,5588,1
210,2,20,target,target_7,G,/+/The old man * advised on the special diet * has * not responded./,Did the old man advise on the diet?,N,,0,26,old,3,2,2,11,1,2,3,287,1562924762418,N,5588,1
210,2,20,target,target_7,G,/+/The old man * advised on the special diet * has * not responded./,Did the old man advise on the diet?,N,,0,26,man,4,2,3,11,1,3,3,407,1562924762826,N,5588,1
210,2,20,target,target_7,G,/+/The old man * advised on the special diet * has * not responded./,Did the old man advise on the diet?,N,,0,26,advised,5,2,4,11,2,1,5,768,1562924763594,N,5588,1
210,2,20,target,target_7,G,/+/The old man * advised on the special diet * has * not responded./,Did the old man advise on the diet?,N,,0,26,on,6,2,5,11,2,2,5,1103,1562924764698,N,5588,1
210,2,20,target,target_7,G,/+/The old man * advised on the special diet * has * not responded./,Did the old man advise on the diet?,N,,0,26,advised,7,2,4,11,2,1,5,608,1562924765306,N,5588,1
210,2,20,target,target_7,G,/+/The old man * advised on the special diet * has * not responded./,Did the old man advise on the diet?,N,,0,26,on,8,2,5,11,2,2,5,463,1562924765770,N,5588,1
210,2,20,target,target_7,G,/+/The old man * advised on the special diet * has * not responded./,Did the old man advise on the diet?,N,,0,26,the,9,2,6,11,2,3,5,512,1562924766282,N,5588,1
210,2,20,target,target_7,G,/+/The old man * advised on the special diet * has * not responded./,Did the old man advise on the diet?,N,,0,26,special,10,2,7,11,2,4,5,1352,1562924767634,N,5588,1
210,2,20,target,target_7,G,/+/The old man * advised on the special diet * has * not responded./,Did the old man advise on the diet?,N,,0,26,diet,11,2,8,11,2,5,5,360,1562924767994,N,5588,1
210,2,20,target,target_7,G,/+/The old man * advised on the special diet * has * not responded./,Did the old man advise on the diet?,N,,0,26,has,12,2,9,11,3,1,1,415,1562924768410,N,5588,1
210,2,20,target,target_7,G,/+/The old man * advised on the special diet * has * not responded./,Did the old man advise on the diet?,N,,0,26,diet,13,2,8,11,2,5,5,264,1562924768674,N,5588,1
210,2,20,target,target_7,G,/+/The old man * advised on the special diet * has * not responded./,Did the old man advise on the diet?,N,,0,26,has,14,2,9,11,3,1,1,401,1562924769075,N,5588,1
210,2,20,target,target_7,G,/+/The old man * advised on the special diet * has * not responded./,Did the old man advise on the diet?,N,,0,26,not,15,2,10,11,4,1,2,919,1562924769994,N,5588,1
210,2,20,target,target_7,G,/+/The old man * advised on the special diet * has * not responded./,Did the old man advise on the diet?,N,,0,26,responded.,16,2,11,11,4,2,2,976,1562924770970,N,5588,1
210,2,21,filler,filler_18,,/+/The actual price of the clothes was much higher than the man had expected./,Was the price of the clothes low?,N,,0,27,+,1,1,1,1,1,1,1,1231,1562924778290,N,5556,1
210,2,21,filler,filler_18,,/+/The actual price of the clothes was much higher than the man had expected./,Was the price of the clothes low?,N,,0,27,The,2,2,1,14,1,1,14,440,1562924778730,N,5556,1
210,2,21,filler,filler_18,,/+/The actual price of the clothes was much higher than the man had expected./,Was the price of the clothes low?,N,,0,27,actual,3,2,2,14,1,2,14,1528,1562924780258,N,5556,1
210,2,21,filler,filler_18,,/+/The actual price of the clothes was much higher than the man had expected./,Was the price of the clothes low?,N,,0,27,price,4,2,3,14,1,3,14,984,1562924781242,N,5556,1
210,2,21,filler,filler_18,,/+/The actual price of the clothes was much higher than the man had expected./,Was the price of the clothes low?,N,,0,27,of,5,2,4,14,1,4,14,632,1562924781874,N,5556,1
210,2,21,filler,filler_18,,/+/The actual price of the clothes was much higher than the man had expected./,Was the price of the clothes low?,N,,0,27,the,6,2,5,14,1,5,14,512,1562924782386,N,5556,1
210,2,21,filler,filler_18,,/+/The actual price of the clothes was much higher than the man had expected./,Was the price of the clothes low?,N,,0,27,clothes,7,2,6,14,1,6,14,624,1562924783010,N,5556,1
210,2,21,filler,filler_18,,/+/The actual price of the clothes was much higher than the man had expected./,Was the price of the clothes low?,N,,0,27,was,8,2,7,14,1,7,14,800,1562924783810,N,5556,1
210,2,21,filler,filler_18,,/+/The actual price of the clothes was much higher than the man had expected./,Was the price of the clothes low?,N,,0,27,much,9,2,8,14,1,8,14,624,1562924784434,N,5556,1
210,2,21,filler,filler_18,,/+/The actual price of the clothes was much higher than the man had expected./,Was the price of the clothes low?,N,,0,27,higher,10,2,9,14,1,9,14,727,1562924785161,N,5556,1
210,2,21,filler,filler_18,,/+/The actual price of the clothes was much higher than the man had expected./,Was the price of the clothes low?,N,,0,27,than,11,2,10,14,1,10,14,593,1562924785754,N,5556,1
210,2,21,filler,filler_18,,/+/The actual price of the clothes was much higher than the man had expected./,Was the price of the clothes low?,N,,0,27,the,12,2,11,14,1,11,14,447,1562924786201,N,5556,1
210,2,21,filler,filler_18,,/+/The actual price of the clothes was much higher than the man had expected./,Was the price of the clothes low?,N,,0,27,man,13,2,12,14,1,12,14,473,1562924786674,N,5556,1
210,2,21,filler,filler_18,,/+/The actual price of the clothes was much higher than the man had expected./,Was the price of the clothes low?,N,,0,27,had,14,2,13,14,1,13,14,920,1562924787594,N,5556,1
210,2,21,filler,filler_18,,/+/The actual price of the clothes was much higher than the man had expected./,Was the price of the clothes low?,N,,0,27,expected.,15,2,14,14,1,14,14,1535,1562924789129,N,5556,1
210,2,22,target,target_9,C,/+/The famous scientist * who was * awarded an academic prize * expressed * his excitement./,Did the scientist award a prize？,N,,0,28,+,1,1,1,1,1,1,1,440,1562924795626,Y,4163,0
210,2,22,target,target_9,C,/+/The famous scientist * who was * awarded an academic prize * expressed * his excitement./,Did the scientist award a prize？,N,,0,28,The,2,2,1,12,1,1,3,432,1562924796058,Y,4163,0
210,2,22,target,target_9,C,/+/The famous scientist * who was * awarded an academic prize * expressed * his excitement./,Did the scientist award a prize？,N,,0,28,famous,3,2,2,12,1,2,3,432,1562924796490,Y,4163,0
210,2,22,target,target_9,C,/+/The famous scientist * who was * awarded an academic prize * expressed * his excitement./,Did the scientist award a prize？,N,,0,28,scientist,4,2,3,12,1,3,3,2392,1562924798882,Y,4163,0
210,2,22,target,target_9,C,/+/The famous scientist * who was * awarded an academic prize * expressed * his excitement./,Did the scientist award a prize？,N,,0,28,who,5,2,4,12,2,1,2,560,1562924799442,Y,4163,0
210,2,22,target,target_9,C,/+/The famous scientist * who was * awarded an academic prize * expressed * his excitement./,Did the scientist award a prize？,N,,0,28,was,6,2,5,12,2,2,2,688,1562924800130,Y,4163,0
210,2,22,target,target_9,C,/+/The famous scientist * who was * awarded an academic prize * expressed * his excitement./,Did the scientist award a prize？,N,,0,28,awarded,7,2,6,12,3,1,4,2255,1562924802385,Y,4163,0
210,2,22,target,target_9,C,/+/The famous scientist * who was * awarded an academic prize * expressed * his excitement./,Did the scientist award a prize？,N,,0,28,an,8,2,7,12,3,2,4,649,1562924803034,Y,4163,0
210,2,22,target,target_9,C,/+/The famous scientist * who was * awarded an academic prize * expressed * his excitement./,Did the scientist award a prize？,N,,0,28,academic,9,2,8,12,3,3,4,1112,1562924804146,Y,4163,0
210,2,22,target,target_9,C,/+/The famous scientist * who was * awarded an academic prize * expressed * his excitement./,Did the scientist award a prize？,N,,0,28,prize,10,2,9,12,3,4,4,768,1562924804914,Y,4163,0
210,2,22,target,target_9,C,/+/The famous scientist * who was * awarded an academic prize * expressed * his excitement./,Did the scientist award a prize？,N,,0,28,expressed,11,2,10,12,4,1,1,656,1562924805570,Y,4163,0
210,2,22,target,target_9,C,/+/The famous scientist * who was * awarded an academic prize * expressed * his excitement./,Did the scientist award a prize？,N,,0,28,his,12,2,11,12,5,1,2,608,1562924806178,Y,4163,0
210,2,22,target,target_9,C,/+/The famous scientist * who was * awarded an academic prize * expressed * his excitement./,Did the scientist award a prize？,N,,0,28,excitement.,13,2,12,12,5,2,2,2001,1562924808179,Y,4163,0
210,2,23,filler,filler_2,,/+/The small town near Taipei was famous for its rich seafood resources./,Was the small town famous?,Y,,0,29,+,1,1,1,1,1,1,1,391,1562924813235,Y,3418,1
210,2,23,filler,filler_2,,/+/The small town near Taipei was famous for its rich seafood resources./,Was the small town famous?,Y,,0,29,The,2,2,1,12,1,1,12,496,1562924813731,Y,3418,1
210,2,23,filler,filler_2,,/+/The small town near Taipei was famous for its rich seafood resources./,Was the small town famous?,Y,,0,29,small,3,2,2,12,1,2,12,464,1562924814195,Y,3418,1
210,2,23,filler,filler_2,,/+/The small town near Taipei was famous for its rich seafood resources./,Was the small town famous?,Y,,0,29,town,4,2,3,12,1,3,12,415,1562924814610,Y,3418,1
210,2,23,filler,filler_2,,/+/The small town near Taipei was famous for its rich seafood resources./,Was the small town famous?,Y,,0,29,near,5,2,4,12,1,4,12,449,1562924815059,Y,3418,1
210,2,23,filler,filler_2,,/+/The small town near Taipei was famous for its rich seafood resources./,Was the small town famous?,Y,,0,29,Taipei,6,2,5,12,1,5,12,1784,1562924816843,Y,3418,1
210,2,23,filler,filler_2,,/+/The small town near Taipei was famous for its rich seafood resources./,Was the small town famous?,Y,,0,29,was,7,2,6,12,1,6,12,783,1562924817626,Y,3418,1
210,2,23,filler,filler_2,,/+/The small town near Taipei was famous for its rich seafood resources./,Was the small town famous?,Y,,0,29,famous,8,2,7,12,1,7,12,545,1562924818171,Y,3418,1
210,2,23,filler,filler_2,,/+/The small town near Taipei was famous for its rich seafood resources./,Was the small town famous?,Y,,0,29,for,9,2,8,12,1,8,12,360,1562924818531,Y,3418,1
210,2,23,filler,filler_2,,/+/The small town near Taipei was famous for its rich seafood resources./,Was the small town famous?,Y,,0,29,its,10,2,9,12,1,9,12,392,1562924818923,Y,3418,1
210,2,23,filler,filler_2,,/+/The small town near Taipei was famous for its rich seafood resources./,Was the small town famous?,Y,,0,29,rich,11,2,10,12,1,10,12,328,1562924819251,Y,3418,1
210,2,23,filler,filler_2,,/+/The small town near Taipei was famous for its rich seafood resources./,Was the small town famous?,Y,,0,29,seafood,12,2,11,12,1,11,12,1192,1562924820443,Y,3418,1
210,2,23,filler,filler_2,,/+/The small town near Taipei was famous for its rich seafood resources./,Was the small town famous?,Y,,0,29,resources.,13,2,12,12,1,12,12,320,1562924820763,Y,3418,1
210,2,24,filler,filler_30,,/+/The pop star contributed four million to the Hope project yesterday./,Did the pop star donate money yesterday?,Y,,0,30,+,1,1,1,1,1,1,1,640,1562924825323,Y,2875,1
210,2,24,filler,filler_30,,/+/The pop star contributed four million to the Hope project yesterday./,Did the pop star donate money yesterday?,Y,,0,30,The,2,2,1,11,1,1,11,343,1562924825666,Y,2875,1
210,2,24,filler,filler_30,,/+/The pop star contributed four million to the Hope project yesterday./,Did the pop star donate money yesterday?,Y,,0,30,pop,3,2,2,11,1,2,11,1040,1562924826706,Y,2875,1
210,2,24,filler,filler_30,,/+/The pop star contributed four million to the Hope project yesterday./,Did the pop star donate money yesterday?,Y,,0,30,star,4,2,3,11,1,3,11,681,1562924827387,Y,2875,1
210,2,24,filler,filler_30,,/+/The pop star contributed four million to the Hope project yesterday./,Did the pop star donate money yesterday?,Y,,0,30,contributed,5,2,4,11,1,4,11,1480,1562924828867,Y,2875,1
210,2,24,filler,filler_30,,/+/The pop star contributed four million to the Hope project yesterday./,Did the pop star donate money yesterday?,Y,,0,30,four,6,2,5,11,1,5,11,784,1562924829651,Y,2875,1
210,2,24,filler,filler_30,,/+/The pop star contributed four million to the Hope project yesterday./,Did the pop star donate money yesterday?,Y,,0,30,million,7,2,6,11,1,6,11,632,1562924830283,Y,2875,1
210,2,24,filler,filler_30,,/+/The pop star contributed four million to the Hope project yesterday./,Did the pop star donate money yesterday?,Y,,0,30,to,8,2,7,11,1,7,11,479,1562924830762,Y,2875,1
210,2,24,filler,filler_30,,/+/The pop star contributed four million to the Hope project yesterday./,Did the pop star donate money yesterday?,Y,,0,30,the,9,2,8,11,1,8,11,401,1562924831163,Y,2875,1
210,2,24,filler,filler_30,,/+/The pop star contributed four million to the Hope project yesterday./,Did the pop star donate money yesterday?,Y,,0,30,Hope,10,2,9,11,1,9,11,503,1562924831666,Y,2875,1
210,2,24,filler,filler_30,,/+/The pop star contributed four million to the Hope project yesterday./,Did the pop star donate money yesterday?,Y,,0,30,project,11,2,10,11,1,10,11,569,1562924832235,Y,2875,1
210,2,24,filler,filler_30,,/+/The pop star contributed four million to the Hope project yesterday./,Did the pop star donate money yesterday?,Y,,0,30,yesterday.,12,2,11,11,1,11,11,728,1562924832963,Y,2875,1
210,2,25,target,target_10,G,/+/The skilled hunters * stopped killing wild animals * ended up * in prison./,Did somebody stop the hunters from killing?,Y,,0,31,+,1,1,1,1,1,1,1,1279,1562924837619,N,4372,0
