dat_Subject,list,display_order,type,id,con,fab_stimulus,fab_question,fab_key,fab_instruction,fab_feedback,dat_Trial,dat_Window,dat_WindowSequence,dat_LoopNumber,dat_LoopPosition,dat_LoopSum,dat_AreaNumber,dat_AreaPosition,dat_AreaSum,dat_ReactionTime,dat_Time,dat_Ans,dat_AnsReactionTime,dat_Accuracy
191,1,p1,practice,practice_1,,/+/The patient listened to the doctor’s advice after he felt hopeless./,Did the patient follow the doctor?,Y,ins.jpg,1,1,+,1,1,1,1,1,1,1,2894,1562672577565,Y,2060,1
191,1,p1,practice,practice_1,,/+/The patient listened to the doctor’s advice after he felt hopeless./,Did the patient follow the doctor?,Y,ins.jpg,1,1,The,2,2,1,11,1,1,11,1192,1562672578757,Y,2060,1
191,1,p1,practice,practice_1,,/+/The patient listened to the doctor’s advice after he felt hopeless./,Did the patient follow the doctor?,Y,ins.jpg,1,1,patient,3,2,2,11,1,2,11,1088,1562672579846,Y,2060,1
191,1,p1,practice,practice_1,,/+/The patient listened to the doctor’s advice after he felt hopeless./,Did the patient follow the doctor?,Y,ins.jpg,1,1,listened,4,2,3,11,1,3,11,1032,1562672580878,Y,2060,1
191,1,p1,practice,practice_1,,/+/The patient listened to the doctor’s advice after he felt hopeless./,Did the patient follow the doctor?,Y,ins.jpg,1,1,to,5,2,4,11,1,4,11,976,1562672581854,Y,2060,1
191,1,p1,practice,practice_1,,/+/The patient listened to the doctor’s advice after he felt hopeless./,Did the patient follow the doctor?,Y,ins.jpg,1,1,the,6,2,5,11,1,5,11,960,1562672582814,Y,2060,1
191,1,p1,practice,practice_1,,/+/The patient listened to the doctor’s advice after he felt hopeless./,Did the patient follow the doctor?,Y,ins.jpg,1,1,doctor’s,7,2,6,11,1,6,11,831,1562672583645,Y,2060,1
191,1,p1,practice,practice_1,,/+/The patient listened to the doctor’s advice after he felt hopeless./,Did the patient follow the doctor?,Y,ins.jpg,1,1,advice,8,2,7,11,1,7,11,872,1562672584518,Y,2060,1
191,1,p1,practice,practice_1,,/+/The patient listened to the doctor’s advice after he felt hopeless./,Did the patient follow the doctor?,Y,ins.jpg,1,1,after,9,2,8,11,1,8,11,992,1562672585510,Y,2060,1
191,1,p1,practice,practice_1,,/+/The patient listened to the doctor’s advice after he felt hopeless./,Did the patient follow the doctor?,Y,ins.jpg,1,1,he,10,2,9,11,1,9,11,984,1562672586494,Y,2060,1
191,1,p1,practice,practice_1,,/+/The patient listened to the doctor’s advice after he felt hopeless./,Did the patient follow the doctor?,Y,ins.jpg,1,1,felt,11,2,10,11,1,10,11,792,1562672587286,Y,2060,1
191,1,p1,practice,practice_1,,/+/The patient listened to the doctor’s advice after he felt hopeless./,Did the patient follow the doctor?,Y,ins.jpg,1,1,hopeless.,12,2,11,11,1,11,11,2399,1562672589685,Y,2060,1
191,1,p2,practice,practice_2,,/+/The visitors knew little about how the painting was created./,Did the visitors know how the painting was created?,N,,1,2,+,1,1,1,1,1,1,1,2828,1562672595077,N,2732,1
191,1,p2,practice,practice_2,,/+/The visitors knew little about how the painting was created./,Did the visitors know how the painting was created?,N,,1,2,The,2,2,1,10,1,1,10,631,1562672595709,N,2732,1
191,1,p2,practice,practice_2,,/+/The visitors knew little about how the painting was created./,Did the visitors know how the painting was created?,N,,1,2,visitors,3,2,2,10,1,2,10,1225,1562672596934,N,2732,1
191,1,p2,practice,practice_2,,/+/The visitors knew little about how the painting was created./,Did the visitors know how the painting was created?,N,,1,2,knew,4,2,3,10,1,3,10,1152,1562672598086,N,2732,1
191,1,p2,practice,practice_2,,/+/The visitors knew little about how the painting was created./,Did the visitors know how the painting was created?,N,,1,2,little,5,2,4,10,1,4,10,856,1562672598942,N,2732,1
191,1,p2,practice,practice_2,,/+/The visitors knew little about how the painting was created./,Did the visitors know how the painting was created?,N,,1,2,about,6,2,5,10,1,5,10,832,1562672599774,N,2732,1
191,1,p2,practice,practice_2,,/+/The visitors knew little about how the painting was created./,Did the visitors know how the painting was created?,N,,1,2,how,7,2,6,10,1,6,10,888,1562672600662,N,2732,1
191,1,p2,practice,practice_2,,/+/The visitors knew little about how the painting was created./,Did the visitors know how the painting was created?,N,,1,2,the,8,2,7,10,1,7,10,800,1562672601462,N,2732,1
191,1,p2,practice,practice_2,,/+/The visitors knew little about how the painting was created./,Did the visitors know how the painting was created?,N,,1,2,painting,9,2,8,10,1,8,10,872,1562672602334,N,2732,1
191,1,p2,practice,practice_2,,/+/The visitors knew little about how the painting was created./,Did the visitors know how the painting was created?,N,,1,2,was,10,2,9,10,1,9,10,776,1562672603110,N,2732,1
191,1,p2,practice,practice_2,,/+/The visitors knew little about how the painting was created./,Did the visitors know how the painting was created?,N,,1,2,created.,11,2,10,10,1,10,10,1807,1562672604917,N,2732,1
191,1,p3,practice,practice_3,,/+/The old lady lived further away from the city center./,Did the old lady live in the city center?,N,,1,3,+,1,1,1,1,1,1,1,2270,1562672610421,N,2012,1
191,1,p3,practice,practice_3,,/+/The old lady lived further away from the city center./,Did the old lady live in the city center?,N,,1,3,The,2,2,1,10,1,1,10,911,1562672611333,N,2012,1
191,1,p3,practice,practice_3,,/+/The old lady lived further away from the city center./,Did the old lady live in the city center?,N,,1,3,old,3,2,2,10,1,2,10,831,1562672612165,N,2012,1
191,1,p3,practice,practice_3,,/+/The old lady lived further away from the city center./,Did the old lady live in the city center?,N,,1,3,lady,4,2,3,10,1,3,10,992,1562672613158,N,2012,1
191,1,p3,practice,practice_3,,/+/The old lady lived further away from the city center./,Did the old lady live in the city center?,N,,1,3,lived,5,2,4,10,1,4,10,1008,1562672614166,N,2012,1
191,1,p3,practice,practice_3,,/+/The old lady lived further away from the city center./,Did the old lady live in the city center?,N,,1,3,further,6,2,5,10,1,5,10,1111,1562672615278,N,2012,1
191,1,p3,practice,practice_3,,/+/The old lady lived further away from the city center./,Did the old lady live in the city center?,N,,1,3,away,7,2,6,10,1,6,10,1072,1562672616350,N,2012,1
191,1,p3,practice,practice_3,,/+/The old lady lived further away from the city center./,Did the old lady live in the city center?,N,,1,3,from,8,2,7,10,1,7,10,848,1562672617198,N,2012,1
191,1,p3,practice,practice_3,,/+/The old lady lived further away from the city center./,Did the old lady live in the city center?,N,,1,3,the,9,2,8,10,1,8,10,975,1562672618173,N,2012,1
191,1,p3,practice,practice_3,,/+/The old lady lived further away from the city center./,Did the old lady live in the city center?,N,,1,3,city,10,2,9,10,1,9,10,3031,1562672621205,N,2012,1
191,1,p3,practice,practice_3,,/+/The old lady lived further away from the city center./,Did the old lady live in the city center?,N,,1,3,center.,11,2,10,10,1,10,10,2233,1562672623438,N,2012,1
191,1,p4,practice,practice_4,,/+/The maid looked at the hostess with a nervous smile./,Did the maid feel nervous? ,Y,,1,4,+,1,1,1,1,1,1,1,1655,1562672627605,Y,1707,1
191,1,p4,practice,practice_4,,/+/The maid looked at the hostess with a nervous smile./,Did the maid feel nervous? ,Y,,1,4,The,2,2,1,10,1,1,10,959,1562672628565,Y,1707,1
191,1,p4,practice,practice_4,,/+/The maid looked at the hostess with a nervous smile./,Did the maid feel nervous? ,Y,,1,4,maid,3,2,2,10,1,2,10,863,1562672629429,Y,1707,1
191,1,p4,practice,practice_4,,/+/The maid looked at the hostess with a nervous smile./,Did the maid feel nervous? ,Y,,1,4,looked,4,2,3,10,1,3,10,791,1562672630221,Y,1707,1
191,1,p4,practice,practice_4,,/+/The maid looked at the hostess with a nervous smile./,Did the maid feel nervous? ,Y,,1,4,at,5,2,4,10,1,4,10,888,1562672631109,Y,1707,1
191,1,p4,practice,practice_4,,/+/The maid looked at the hostess with a nervous smile./,Did the maid feel nervous? ,Y,,1,4,the,6,2,5,10,1,5,10,825,1562672631934,Y,1707,1
191,1,p4,practice,practice_4,,/+/The maid looked at the hostess with a nervous smile./,Did the maid feel nervous? ,Y,,1,4,hostess,7,2,6,10,1,6,10,1495,1562672633430,Y,1707,1
191,1,p4,practice,practice_4,,/+/The maid looked at the hostess with a nervous smile./,Did the maid feel nervous? ,Y,,1,4,with,8,2,7,10,1,7,10,928,1562672634358,Y,1707,1
191,1,p4,practice,practice_4,,/+/The maid looked at the hostess with a nervous smile./,Did the maid feel nervous? ,Y,,1,4,a,9,2,8,10,1,8,10,943,1562672635301,Y,1707,1
191,1,p4,practice,practice_4,,/+/The maid looked at the hostess with a nervous smile./,Did the maid feel nervous? ,Y,,1,4,nervous,10,2,9,10,1,9,10,1280,1562672636581,Y,1707,1
191,1,p4,practice,practice_4,,/+/The maid looked at the hostess with a nervous smile./,Did the maid feel nervous? ,Y,,1,4,smile.,11,2,10,10,1,10,10,1616,1562672638197,Y,1707,1
191,1,p5,practice,practice_5,,/+/The young lady * sent a red rose * became * really embarrassed./,Did the lady send a red rose?,N,,1,5,+,1,1,1,1,1,1,1,1632,1562672642037,N,2796,1
191,1,p5,practice,practice_5,,/+/The young lady * sent a red rose * became * really embarrassed./,Did the lady send a red rose?,N,,1,5,The,2,2,1,10,1,1,3,1256,1562672643293,N,2796,1
191,1,p5,practice,practice_5,,/+/The young lady * sent a red rose * became * really embarrassed./,Did the lady send a red rose?,N,,1,5,young,3,2,2,10,1,2,3,880,1562672644173,N,2796,1
191,1,p5,practice,practice_5,,/+/The young lady * sent a red rose * became * really embarrassed./,Did the lady send a red rose?,N,,1,5,lady,4,2,3,10,1,3,3,936,1562672645109,N,2796,1
191,1,p5,practice,practice_5,,/+/The young lady * sent a red rose * became * really embarrassed./,Did the lady send a red rose?,N,,1,5,sent,5,2,4,10,2,1,4,856,1562672645965,N,2796,1
191,1,p5,practice,practice_5,,/+/The young lady * sent a red rose * became * really embarrassed./,Did the lady send a red rose?,N,,1,5,a,6,2,5,10,2,2,4,815,1562672646780,N,2796,1
191,1,p5,practice,practice_5,,/+/The young lady * sent a red rose * became * really embarrassed./,Did the lady send a red rose?,N,,1,5,red,7,2,6,10,2,3,4,959,1562672647740,N,2796,1
191,1,p5,practice,practice_5,,/+/The young lady * sent a red rose * became * really embarrassed./,Did the lady send a red rose?,N,,1,5,rose,8,2,7,10,2,4,4,1015,1562672648756,N,2796,1
191,1,p5,practice,practice_5,,/+/The young lady * sent a red rose * became * really embarrassed./,Did the lady send a red rose?,N,,1,5,became,9,2,8,10,3,1,1,1552,1562672650309,N,2796,1
191,1,p5,practice,practice_5,,/+/The young lady * sent a red rose * became * really embarrassed./,Did the lady send a red rose?,N,,1,5,really,10,2,9,10,4,1,2,2040,1562672652349,N,2796,1
191,1,p5,practice,practice_5,,/+/The young lady * sent a red rose * became * really embarrassed./,Did the lady send a red rose?,N,,1,5,embarrassed.,11,2,10,10,4,2,2,2480,1562672654829,N,2796,1
191,1,p6,practice,practice_6,,/+/The busy workers * who were * offered a delicious pizza * felt * not so hungry./,Did someone offer the workers a pizza?,Y,,1,6,+,1,1,1,1,1,1,1,1565,1562672659692,Y,3276,1
191,1,p6,practice,practice_6,,/+/The busy workers * who were * offered a delicious pizza * felt * not so hungry./,Did someone offer the workers a pizza?,Y,,1,6,The,2,2,1,13,1,1,3,1169,1562672660861,Y,3276,1
191,1,p6,practice,practice_6,,/+/The busy workers * who were * offered a delicious pizza * felt * not so hungry./,Did someone offer the workers a pizza?,Y,,1,6,busy,3,2,2,13,1,2,3,960,1562672661821,Y,3276,1
191,1,p6,practice,practice_6,,/+/The busy workers * who were * offered a delicious pizza * felt * not so hungry./,Did someone offer the workers a pizza?,Y,,1,6,workers,4,2,3,13,1,3,3,1184,1562672663005,Y,3276,1
191,1,p6,practice,practice_6,,/+/The busy workers * who were * offered a delicious pizza * felt * not so hungry./,Did someone offer the workers a pizza?,Y,,1,6,who,5,2,4,13,2,1,2,1039,1562672664044,Y,3276,1
191,1,p6,practice,practice_6,,/+/The busy workers * who were * offered a delicious pizza * felt * not so hungry./,Did someone offer the workers a pizza?,Y,,1,6,were,6,2,5,13,2,2,2,1199,1562672665244,Y,3276,1
191,1,p6,practice,practice_6,,/+/The busy workers * who were * offered a delicious pizza * felt * not so hungry./,Did someone offer the workers a pizza?,Y,,1,6,offered,7,2,6,13,3,1,4,1144,1562672666389,Y,3276,1
191,1,p6,practice,practice_6,,/+/The busy workers * who were * offered a delicious pizza * felt * not so hungry./,Did someone offer the workers a pizza?,Y,,1,6,a,8,2,7,13,3,2,4,1000,1562672667389,Y,3276,1
191,1,p6,practice,practice_6,,/+/The busy workers * who were * offered a delicious pizza * felt * not so hungry./,Did someone offer the workers a pizza?,Y,,1,6,delicious,9,2,8,13,3,3,4,856,1562672668245,Y,3276,1
191,1,p6,practice,practice_6,,/+/The busy workers * who were * offered a delicious pizza * felt * not so hungry./,Did someone offer the workers a pizza?,Y,,1,6,pizza,10,2,9,13,3,4,4,944,1562672669189,Y,3276,1
191,1,p6,practice,practice_6,,/+/The busy workers * who were * offered a delicious pizza * felt * not so hungry./,Did someone offer the workers a pizza?,Y,,1,6,felt,11,2,10,13,4,1,1,1032,1562672670221,Y,3276,1
191,1,p6,practice,practice_6,,/+/The busy workers * who were * offered a delicious pizza * felt * not so hungry./,Did someone offer the workers a pizza?,Y,,1,6,not,12,2,11,13,5,1,3,1152,1562672671373,Y,3276,1
191,1,p6,practice,practice_6,,/+/The busy workers * who were * offered a delicious pizza * felt * not so hungry./,Did someone offer the workers a pizza?,Y,,1,6,so,13,2,12,13,5,2,3,1112,1562672672485,Y,3276,1
191,1,p6,practice,practice_6,,/+/The busy workers * who were * offered a delicious pizza * felt * not so hungry./,Did someone offer the workers a pizza?,Y,,1,6,hungry.,14,2,13,13,5,3,3,1792,1562672674277,Y,3276,1
191,1,p6,practice,practice_6,,/+/The busy workers * who were * offered a delicious pizza * felt * not so hungry./,Did someone offer the workers a pizza?,Y,,1,6,so,15,2,12,13,5,2,3,392,1562672674669,Y,3276,1
191,1,p6,practice,practice_6,,/+/The busy workers * who were * offered a delicious pizza * felt * not so hungry./,Did someone offer the workers a pizza?,Y,,1,6,not,16,2,11,13,5,1,3,287,1562672674956,Y,3276,1
191,1,p6,practice,practice_6,,/+/The busy workers * who were * offered a delicious pizza * felt * not so hungry./,Did someone offer the workers a pizza?,Y,,1,6,felt,17,2,10,13,4,1,1,257,1562672675213,Y,3276,1
191,1,p6,practice,practice_6,,/+/The busy workers * who were * offered a delicious pizza * felt * not so hungry./,Did someone offer the workers a pizza?,Y,,1,6,pizza,18,2,9,13,3,4,4,248,1562672675461,Y,3276,1
191,1,p6,practice,practice_6,,/+/The busy workers * who were * offered a delicious pizza * felt * not so hungry./,Did someone offer the workers a pizza?,Y,,1,6,delicious,19,2,8,13,3,3,4,728,1562672676189,Y,3276,1
191,1,p6,practice,practice_6,,/+/The busy workers * who were * offered a delicious pizza * felt * not so hungry./,Did someone offer the workers a pizza?,Y,,1,6,a,20,2,7,13,3,2,4,288,1562672676477,Y,3276,1
191,1,p6,practice,practice_6,,/+/The busy workers * who were * offered a delicious pizza * felt * not so hungry./,Did someone offer the workers a pizza?,Y,,1,6,offered,21,2,6,13,3,1,4,304,1562672676781,Y,3276,1
191,1,p6,practice,practice_6,,/+/The busy workers * who were * offered a delicious pizza * felt * not so hungry./,Did someone offer the workers a pizza?,Y,,1,6,were,22,2,5,13,2,2,2,384,1562672677165,Y,3276,1
191,1,p6,practice,practice_6,,/+/The busy workers * who were * offered a delicious pizza * felt * not so hungry./,Did someone offer the workers a pizza?,Y,,1,6,who,23,2,4,13,2,1,2,320,1562672677485,Y,3276,1
191,1,p6,practice,practice_6,,/+/The busy workers * who were * offered a delicious pizza * felt * not so hungry./,Did someone offer the workers a pizza?,Y,,1,6,workers,24,2,3,13,1,3,3,352,1562672677837,Y,3276,1
191,1,p6,practice,practice_6,,/+/The busy workers * who were * offered a delicious pizza * felt * not so hungry./,Did someone offer the workers a pizza?,Y,,1,6,busy,25,2,2,13,1,2,3,560,1562672678397,Y,3276,1
191,1,p6,practice,practice_6,,/+/The busy workers * who were * offered a delicious pizza * felt * not so hungry./,Did someone offer the workers a pizza?,Y,,1,6,The,26,2,1,13,1,1,3,503,1562672678900,Y,3276,1
191,1,p6,practice,practice_6,,/+/The busy workers * who were * offered a delicious pizza * felt * not so hungry./,Did someone offer the workers a pizza?,Y,,1,6,busy,27,2,2,13,1,2,3,224,1562672679125,Y,3276,1
191,1,p6,practice,practice_6,,/+/The busy workers * who were * offered a delicious pizza * felt * not so hungry./,Did someone offer the workers a pizza?,Y,,1,6,workers,28,2,3,13,1,3,3,208,1562672679333,Y,3276,1
191,1,p6,practice,practice_6,,/+/The busy workers * who were * offered a delicious pizza * felt * not so hungry./,Did someone offer the workers a pizza?,Y,,1,6,who,29,2,4,13,2,1,2,240,1562672679573,Y,3276,1
191,1,p6,practice,practice_6,,/+/The busy workers * who were * offered a delicious pizza * felt * not so hungry./,Did someone offer the workers a pizza?,Y,,1,6,were,30,2,5,13,2,2,2,208,1562672679781,Y,3276,1
191,1,p6,practice,practice_6,,/+/The busy workers * who were * offered a delicious pizza * felt * not so hungry./,Did someone offer the workers a pizza?,Y,,1,6,offered,31,2,6,13,3,1,4,183,1562672679964,Y,3276,1
191,1,p6,practice,practice_6,,/+/The busy workers * who were * offered a delicious pizza * felt * not so hungry./,Did someone offer the workers a pizza?,Y,,1,6,a,32,2,7,13,3,2,4,417,1562672680381,Y,3276,1
191,1,p6,practice,practice_6,,/+/The busy workers * who were * offered a delicious pizza * felt * not so hungry./,Did someone offer the workers a pizza?,Y,,1,6,delicious,33,2,8,13,3,3,4,336,1562672680717,Y,3276,1
191,1,p6,practice,practice_6,,/+/The busy workers * who were * offered a delicious pizza * felt * not so hungry./,Did someone offer the workers a pizza?,Y,,1,6,pizza,34,2,9,13,3,4,4,367,1562672681084,Y,3276,1
191,1,p6,practice,practice_6,,/+/The busy workers * who were * offered a delicious pizza * felt * not so hungry./,Did someone offer the workers a pizza?,Y,,1,6,felt,35,2,10,13,4,1,1,511,1562672681596,Y,3276,1
191,1,p6,practice,practice_6,,/+/The busy workers * who were * offered a delicious pizza * felt * not so hungry./,Did someone offer the workers a pizza?,Y,,1,6,not,36,2,11,13,5,1,3,311,1562672681908,Y,3276,1
191,1,p6,practice,practice_6,,/+/The busy workers * who were * offered a delicious pizza * felt * not so hungry./,Did someone offer the workers a pizza?,Y,,1,6,so,37,2,12,13,5,2,3,375,1562672682284,Y,3276,1
191,1,p6,practice,practice_6,,/+/The busy workers * who were * offered a delicious pizza * felt * not so hungry./,Did someone offer the workers a pizza?,Y,,1,6,hungry.,38,2,13,13,5,3,3,967,1562672683252,Y,3276,1
191,1,1,filler,filler_6,,/+/The girl sang very well through learning experiences from her tutor./,Did the girl's tutor do a lot of help? ,Y,练习结束，现在开始正式实验。,0,7,+,1,1,1,1,1,1,1,4498,1562672725939,Y,3075,1
191,1,1,filler,filler_6,,/+/The girl sang very well through learning experiences from her tutor./,Did the girl's tutor do a lot of help? ,Y,练习结束，现在开始正式实验。,0,7,The,2,2,1,11,1,1,11,825,1562672726764,Y,3075,1
191,1,1,filler,filler_6,,/+/The girl sang very well through learning experiences from her tutor./,Did the girl's tutor do a lot of help? ,Y,练习结束，现在开始正式实验。,0,7,girl,3,2,2,11,1,2,11,648,1562672727412,Y,3075,1
191,1,1,filler,filler_6,,/+/The girl sang very well through learning experiences from her tutor./,Did the girl's tutor do a lot of help? ,Y,练习结束，现在开始正式实验。,0,7,sang,4,2,3,11,1,3,11,1039,1562672728451,Y,3075,1
191,1,1,filler,filler_6,,/+/The girl sang very well through learning experiences from her tutor./,Did the girl's tutor do a lot of help? ,Y,练习结束，现在开始正式实验。,0,7,very,5,2,4,11,1,4,11,927,1562672729378,Y,3075,1
191,1,1,filler,filler_6,,/+/The girl sang very well through learning experiences from her tutor./,Did the girl's tutor do a lot of help? ,Y,练习结束，现在开始正式实验。,0,7,well,6,2,5,11,1,5,11,1044,1562672730422,Y,3075,1
191,1,1,filler,filler_6,,/+/The girl sang very well through learning experiences from her tutor./,Did the girl's tutor do a lot of help? ,Y,练习结束，现在开始正式实验。,0,7,through,7,2,6,11,1,6,11,1005,1562672731427,Y,3075,1
191,1,1,filler,filler_6,,/+/The girl sang very well through learning experiences from her tutor./,Did the girl's tutor do a lot of help? ,Y,练习结束，现在开始正式实验。,0,7,learning,8,2,7,11,1,7,11,1610,1562672733037,Y,3075,1
191,1,1,filler,filler_6,,/+/The girl sang very well through learning experiences from her tutor./,Did the girl's tutor do a lot of help? ,Y,练习结束，现在开始正式实验。,0,7,experiences,9,2,8,11,1,8,11,2544,1562672735581,Y,3075,1
191,1,1,filler,filler_6,,/+/The girl sang very well through learning experiences from her tutor./,Did the girl's tutor do a lot of help? ,Y,练习结束，现在开始正式实验。,0,7,from,10,2,9,11,1,9,11,897,1562672736478,Y,3075,1
191,1,1,filler,filler_6,,/+/The girl sang very well through learning experiences from her tutor./,Did the girl's tutor do a lot of help? ,Y,练习结束，现在开始正式实验。,0,7,her,11,2,10,11,1,10,11,699,1562672737177,Y,3075,1
191,1,1,filler,filler_6,,/+/The girl sang very well through learning experiences from her tutor./,Did the girl's tutor do a lot of help? ,Y,练习结束，现在开始正式实验。,0,7,tutor.,12,2,11,11,1,11,11,2838,1562672740015,Y,3075,1
191,1,2,filler,filler_7,,/+/Some important papers which lay in the office were stolen last night./,Were the papers still safe?,N,,0,8,+,1,1,1,1,1,1,1,1482,1562672745087,N,1874,1
191,1,2,filler,filler_7,,/+/Some important papers which lay in the office were stolen last night./,Were the papers still safe?,N,,0,8,Some,2,2,1,12,1,1,12,815,1562672745902,N,1874,1
191,1,2,filler,filler_7,,/+/Some important papers which lay in the office were stolen last night./,Were the papers still safe?,N,,0,8,important,3,2,2,12,1,2,12,1271,1562672747188,N,1874,1
191,1,2,filler,filler_7,,/+/Some important papers which lay in the office were stolen last night./,Were the papers still safe?,N,,0,8,papers,4,2,3,12,1,3,12,942,1562672748130,N,1874,1
191,1,2,filler,filler_7,,/+/Some important papers which lay in the office were stolen last night./,Were the papers still safe?,N,,0,8,which,5,2,4,12,1,4,12,983,1562672749113,N,1874,1
191,1,2,filler,filler_7,,/+/Some important papers which lay in the office were stolen last night./,Were the papers still safe?,N,,0,8,lay,6,2,5,12,1,5,12,1141,1562672750254,N,1874,1
191,1,2,filler,filler_7,,/+/Some important papers which lay in the office were stolen last night./,Were the papers still safe?,N,,0,8,in,7,2,6,12,1,6,12,730,1562672750984,N,1874,1
191,1,2,filler,filler_7,,/+/Some important papers which lay in the office were stolen last night./,Were the papers still safe?,N,,0,8,the,8,2,7,12,1,7,12,984,1562672751968,N,1874,1
191,1,2,filler,filler_7,,/+/Some important papers which lay in the office were stolen last night./,Were the papers still safe?,N,,0,8,office,9,2,8,12,1,8,12,1032,1562672753000,N,1874,1
191,1,2,filler,filler_7,,/+/Some important papers which lay in the office were stolen last night./,Were the papers still safe?,N,,0,8,were,10,2,9,12,1,9,12,1175,1562672754175,N,1874,1
191,1,2,filler,filler_7,,/+/Some important papers which lay in the office were stolen last night./,Were the papers still safe?,N,,0,8,stolen,11,2,10,12,1,10,12,3042,1562672757217,N,1874,1
191,1,2,filler,filler_7,,/+/Some important papers which lay in the office were stolen last night./,Were the papers still safe?,N,,0,8,were,12,2,9,12,1,9,12,326,1562672757543,N,1874,1
191,1,2,filler,filler_7,,/+/Some important papers which lay in the office were stolen last night./,Were the papers still safe?,N,,0,8,office,13,2,8,12,1,8,12,222,1562672757765,N,1874,1
191,1,2,filler,filler_7,,/+/Some important papers which lay in the office were stolen last night./,Were the papers still safe?,N,,0,8,the,14,2,7,12,1,7,12,265,1562672758030,N,1874,1
191,1,2,filler,filler_7,,/+/Some important papers which lay in the office were stolen last night./,Were the papers still safe?,N,,0,8,in,15,2,6,12,1,6,12,220,1562672758250,N,1874,1
191,1,2,filler,filler_7,,/+/Some important papers which lay in the office were stolen last night./,Were the papers still safe?,N,,0,8,lay,16,2,5,12,1,5,12,218,1562672758468,N,1874,1
191,1,2,filler,filler_7,,/+/Some important papers which lay in the office were stolen last night./,Were the papers still safe?,N,,0,8,which,17,2,4,12,1,4,12,250,1562672758718,N,1874,1
191,1,2,filler,filler_7,,/+/Some important papers which lay in the office were stolen last night./,Were the papers still safe?,N,,0,8,papers,18,2,3,12,1,3,12,467,1562672759185,N,1874,1
191,1,2,filler,filler_7,,/+/Some important papers which lay in the office were stolen last night./,Were the papers still safe?,N,,0,8,important,19,2,2,12,1,2,12,670,1562672759855,N,1874,1
191,1,2,filler,filler_7,,/+/Some important papers which lay in the office were stolen last night./,Were the papers still safe?,N,,0,8,papers,20,2,3,12,1,3,12,325,1562672760180,N,1874,1
191,1,2,filler,filler_7,,/+/Some important papers which lay in the office were stolen last night./,Were the papers still safe?,N,,0,8,which,21,2,4,12,1,4,12,178,1562672760358,N,1874,1
191,1,2,filler,filler_7,,/+/Some important papers which lay in the office were stolen last night./,Were the papers still safe?,N,,0,8,lay,22,2,5,12,1,5,12,245,1562672760603,N,1874,1
191,1,2,filler,filler_7,,/+/Some important papers which lay in the office were stolen last night./,Were the papers still safe?,N,,0,8,in,23,2,6,12,1,6,12,392,1562672760995,N,1874,1
191,1,2,filler,filler_7,,/+/Some important papers which lay in the office were stolen last night./,Were the papers still safe?,N,,0,8,the,24,2,7,12,1,7,12,227,1562672761222,N,1874,1
191,1,2,filler,filler_7,,/+/Some important papers which lay in the office were stolen last night./,Were the papers still safe?,N,,0,8,office,25,2,8,12,1,8,12,329,1562672761551,N,1874,1
191,1,2,filler,filler_7,,/+/Some important papers which lay in the office were stolen last night./,Were the papers still safe?,N,,0,8,were,26,2,9,12,1,9,12,364,1562672761915,N,1874,1
191,1,2,filler,filler_7,,/+/Some important papers which lay in the office were stolen last night./,Were the papers still safe?,N,,0,8,stolen,27,2,10,12,1,10,12,491,1562672762406,N,1874,1
191,1,2,filler,filler_7,,/+/Some important papers which lay in the office were stolen last night./,Were the papers still safe?,N,,0,8,last,28,2,11,12,1,11,12,985,1562672763391,N,1874,1
191,1,2,filler,filler_7,,/+/Some important papers which lay in the office were stolen last night./,Were the papers still safe?,N,,0,8,night.,29,2,12,12,1,12,12,1874,1562672765265,N,1874,1
191,1,3,target,target_1,G,/+/The cotton farmers * warned about the bad floods * had * no other crops./,Did the farmers warn about the floods?,N,,0,9,+,1,1,1,1,1,1,1,1293,1562672768946,N,2858,1
191,1,3,target,target_1,G,/+/The cotton farmers * warned about the bad floods * had * no other crops./,Did the farmers warn about the floods?,N,,0,9,The,2,2,1,12,1,1,3,631,1562672769577,N,2858,1
191,1,3,target,target_1,G,/+/The cotton farmers * warned about the bad floods * had * no other crops./,Did the farmers warn about the floods?,N,,0,9,cotton,3,2,2,12,1,2,3,1149,1562672770726,N,2858,1
191,1,3,target,target_1,G,/+/The cotton farmers * warned about the bad floods * had * no other crops./,Did the farmers warn about the floods?,N,,0,9,farmers,4,2,3,12,1,3,3,1370,1562672772096,N,2858,1
191,1,3,target,target_1,G,/+/The cotton farmers * warned about the bad floods * had * no other crops./,Did the farmers warn about the floods?,N,,0,9,warned,5,2,4,12,2,1,5,1526,1562672773622,N,2858,1
191,1,3,target,target_1,G,/+/The cotton farmers * warned about the bad floods * had * no other crops./,Did the farmers warn about the floods?,N,,0,9,about,6,2,5,12,2,2,5,1162,1562672774784,N,2858,1
191,1,3,target,target_1,G,/+/The cotton farmers * warned about the bad floods * had * no other crops./,Did the farmers warn about the floods?,N,,0,9,the,7,2,6,12,2,3,5,1308,1562672776092,N,2858,1
191,1,3,target,target_1,G,/+/The cotton farmers * warned about the bad floods * had * no other crops./,Did the farmers warn about the floods?,N,,0,9,bad,8,2,7,12,2,4,5,835,1562672776927,N,2858,1
191,1,3,target,target_1,G,/+/The cotton farmers * warned about the bad floods * had * no other crops./,Did the farmers warn about the floods?,N,,0,9,floods,9,2,8,12,2,5,5,1116,1562672778043,N,2858,1
191,1,3,target,target_1,G,/+/The cotton farmers * warned about the bad floods * had * no other crops./,Did the farmers warn about the floods?,N,,0,9,had,10,2,9,12,3,1,1,821,1562672778864,N,2858,1
191,1,3,target,target_1,G,/+/The cotton farmers * warned about the bad floods * had * no other crops./,Did the farmers warn about the floods?,N,,0,9,no,11,2,10,12,4,1,3,569,1562672779433,N,2858,1
191,1,3,target,target_1,G,/+/The cotton farmers * warned about the bad floods * had * no other crops./,Did the farmers warn about the floods?,N,,0,9,other,12,2,11,12,4,2,3,817,1562672780250,N,2858,1
191,1,3,target,target_1,G,/+/The cotton farmers * warned about the bad floods * had * no other crops./,Did the farmers warn about the floods?,N,,0,9,crops.,13,2,12,12,4,3,3,1241,1562672781491,N,2858,1
191,1,3,target,target_1,G,/+/The cotton farmers * warned about the bad floods * had * no other crops./,Did the farmers warn about the floods?,N,,0,9,other,14,2,11,12,4,2,3,425,1562672781916,N,2858,1
191,1,3,target,target_1,G,/+/The cotton farmers * warned about the bad floods * had * no other crops./,Did the farmers warn about the floods?,N,,0,9,no,15,2,10,12,4,1,3,230,1562672782146,N,2858,1
191,1,3,target,target_1,G,/+/The cotton farmers * warned about the bad floods * had * no other crops./,Did the farmers warn about the floods?,N,,0,9,had,16,2,9,12,3,1,1,265,1562672782411,N,2858,1
191,1,3,target,target_1,G,/+/The cotton farmers * warned about the bad floods * had * no other crops./,Did the farmers warn about the floods?,N,,0,9,floods,17,2,8,12,2,5,5,252,1562672782663,N,2858,1
191,1,3,target,target_1,G,/+/The cotton farmers * warned about the bad floods * had * no other crops./,Did the farmers warn about the floods?,N,,0,9,bad,18,2,7,12,2,4,5,234,1562672782897,N,2858,1
191,1,3,target,target_1,G,/+/The cotton farmers * warned about the bad floods * had * no other crops./,Did the farmers warn about the floods?,N,,0,9,the,19,2,6,12,2,3,5,266,1562672783163,N,2858,1
191,1,3,target,target_1,G,/+/The cotton farmers * warned about the bad floods * had * no other crops./,Did the farmers warn about the floods?,N,,0,9,about,20,2,5,12,2,2,5,329,1562672783492,N,2858,1
191,1,3,target,target_1,G,/+/The cotton farmers * warned about the bad floods * had * no other crops./,Did the farmers warn about the floods?,N,,0,9,warned,21,2,4,12,2,1,5,334,1562672783826,N,2858,1
191,1,3,target,target_1,G,/+/The cotton farmers * warned about the bad floods * had * no other crops./,Did the farmers warn about the floods?,N,,0,9,farmers,22,2,3,12,1,3,3,380,1562672784206,N,2858,1
191,1,3,target,target_1,G,/+/The cotton farmers * warned about the bad floods * had * no other crops./,Did the farmers warn about the floods?,N,,0,9,cotton,23,2,2,12,1,2,3,650,1562672784856,N,2858,1
191,1,3,target,target_1,G,/+/The cotton farmers * warned about the bad floods * had * no other crops./,Did the farmers warn about the floods?,N,,0,9,The,24,2,1,12,1,1,3,1134,1562672785990,N,2858,1
191,1,3,target,target_1,G,/+/The cotton farmers * warned about the bad floods * had * no other crops./,Did the farmers warn about the floods?,N,,0,9,cotton,25,2,2,12,1,2,3,668,1562672786658,N,2858,1
191,1,3,target,target_1,G,/+/The cotton farmers * warned about the bad floods * had * no other crops./,Did the farmers warn about the floods?,N,,0,9,farmers,26,2,3,12,1,3,3,808,1562672787466,N,2858,1
191,1,3,target,target_1,G,/+/The cotton farmers * warned about the bad floods * had * no other crops./,Did the farmers warn about the floods?,N,,0,9,warned,27,2,4,12,2,1,5,647,1562672788113,N,2858,1
191,1,3,target,target_1,G,/+/The cotton farmers * warned about the bad floods * had * no other crops./,Did the farmers warn about the floods?,N,,0,9,about,28,2,5,12,2,2,5,2724,1562672790837,N,2858,1
191,1,3,target,target_1,G,/+/The cotton farmers * warned about the bad floods * had * no other crops./,Did the farmers warn about the floods?,N,,0,9,the,29,2,6,12,2,3,5,1053,1562672791890,N,2858,1
191,1,3,target,target_1,G,/+/The cotton farmers * warned about the bad floods * had * no other crops./,Did the farmers warn about the floods?,N,,0,9,bad,30,2,7,12,2,4,5,507,1562672792397,N,2858,1
191,1,3,target,target_1,G,/+/The cotton farmers * warned about the bad floods * had * no other crops./,Did the farmers warn about the floods?,N,,0,9,floods,31,2,8,12,2,5,5,719,1562672793116,N,2858,1
191,1,3,target,target_1,G,/+/The cotton farmers * warned about the bad floods * had * no other crops./,Did the farmers warn about the floods?,N,,0,9,had,32,2,9,12,3,1,1,1484,1562672794600,N,2858,1
191,1,3,target,target_1,G,/+/The cotton farmers * warned about the bad floods * had * no other crops./,Did the farmers warn about the floods?,N,,0,9,no,33,2,10,12,4,1,3,613,1562672795213,N,2858,1
191,1,3,target,target_1,G,/+/The cotton farmers * warned about the bad floods * had * no other crops./,Did the farmers warn about the floods?,N,,0,9,other,34,2,11,12,4,2,3,506,1562672795719,N,2858,1
191,1,3,target,target_1,G,/+/The cotton farmers * warned about the bad floods * had * no other crops./,Did the farmers warn about the floods?,N,,0,9,crops.,35,2,12,12,4,3,3,688,1562672796407,N,2858,1
191,1,4,filler,filler_10,,/+/There was a big hole in the road which blocked the traffic./,Was there a big hole in the road?,Y,,0,10,+,1,1,1,1,1,1,1,1389,1562672801168,Y,2529,1
191,1,4,filler,filler_10,,/+/There was a big hole in the road which blocked the traffic./,Was there a big hole in the road?,Y,,0,10,There,2,2,1,12,1,1,12,3462,1562672804630,Y,2529,1
191,1,4,filler,filler_10,,/+/There was a big hole in the road which blocked the traffic./,Was there a big hole in the road?,Y,,0,10,was,3,2,2,12,1,2,12,1054,1562672805684,Y,2529,1
191,1,4,filler,filler_10,,/+/There was a big hole in the road which blocked the traffic./,Was there a big hole in the road?,Y,,0,10,There,4,2,1,12,1,1,12,365,1562672806049,Y,2529,1
191,1,4,filler,filler_10,,/+/There was a big hole in the road which blocked the traffic./,Was there a big hole in the road?,Y,,0,10,was,5,2,2,12,1,2,12,384,1562672806433,Y,2529,1
191,1,4,filler,filler_10,,/+/There was a big hole in the road which blocked the traffic./,Was there a big hole in the road?,Y,,0,10,a,6,2,3,12,1,3,12,399,1562672806832,Y,2529,1
191,1,4,filler,filler_10,,/+/There was a big hole in the road which blocked the traffic./,Was there a big hole in the road?,Y,,0,10,big,7,2,4,12,1,4,12,525,1562672807357,Y,2529,1
191,1,4,filler,filler_10,,/+/There was a big hole in the road which blocked the traffic./,Was there a big hole in the road?,Y,,0,10,hole,8,2,5,12,1,5,12,706,1562672808063,Y,2529,1
191,1,4,filler,filler_10,,/+/There was a big hole in the road which blocked the traffic./,Was there a big hole in the road?,Y,,0,10,in,9,2,6,12,1,6,12,530,1562672808593,Y,2529,1
191,1,4,filler,filler_10,,/+/There was a big hole in the road which blocked the traffic./,Was there a big hole in the road?,Y,,0,10,the,10,2,7,12,1,7,12,489,1562672809082,Y,2529,1
191,1,4,filler,filler_10,,/+/There was a big hole in the road which blocked the traffic./,Was there a big hole in the road?,Y,,0,10,road,11,2,8,12,1,8,12,454,1562672809536,Y,2529,1
191,1,4,filler,filler_10,,/+/There was a big hole in the road which blocked the traffic./,Was there a big hole in the road?,Y,,0,10,which,12,2,9,12,1,9,12,713,1562672810249,Y,2529,1
191,1,4,filler,filler_10,,/+/There was a big hole in the road which blocked the traffic./,Was there a big hole in the road?,Y,,0,10,blocked,13,2,10,12,1,10,12,765,1562672811014,Y,2529,1
191,1,4,filler,filler_10,,/+/There was a big hole in the road which blocked the traffic./,Was there a big hole in the road?,Y,,0,10,the,14,2,11,12,1,11,12,800,1562672811814,Y,2529,1
191,1,4,filler,filler_10,,/+/There was a big hole in the road which blocked the traffic./,Was there a big hole in the road?,Y,,0,10,traffic.,15,2,12,12,1,12,12,1705,1562672813519,Y,2529,1
191,1,5,target,target_2,C,/+/The sunburned boys * who were * served the hot dogs * got * a stomach ache./,Did the boys serve the hot dogs?,N,,0,11,+,1,1,1,1,1,1,1,962,1562672817530,N,1870,1
191,1,5,target,target_2,C,/+/The sunburned boys * who were * served the hot dogs * got * a stomach ache./,Did the boys serve the hot dogs?,N,,0,11,The,2,2,1,13,1,1,3,720,1562672818250,N,1870,1
191,1,5,target,target_2,C,/+/The sunburned boys * who were * served the hot dogs * got * a stomach ache./,Did the boys serve the hot dogs?,N,,0,11,sunburned,3,2,2,13,1,2,3,1014,1562672819264,N,1870,1
191,1,5,target,target_2,C,/+/The sunburned boys * who were * served the hot dogs * got * a stomach ache./,Did the boys serve the hot dogs?,N,,0,11,boys,4,2,3,13,1,3,3,658,1562672819922,N,1870,1
191,1,5,target,target_2,C,/+/The sunburned boys * who were * served the hot dogs * got * a stomach ache./,Did the boys serve the hot dogs?,N,,0,11,who,5,2,4,13,2,1,2,840,1562672820762,N,1870,1
191,1,5,target,target_2,C,/+/The sunburned boys * who were * served the hot dogs * got * a stomach ache./,Did the boys serve the hot dogs?,N,,0,11,were,6,2,5,13,2,2,2,725,1562672821487,N,1870,1
191,1,5,target,target_2,C,/+/The sunburned boys * who were * served the hot dogs * got * a stomach ache./,Did the boys serve the hot dogs?,N,,0,11,served,7,2,6,13,3,1,4,1468,1562672822955,N,1870,1
191,1,5,target,target_2,C,/+/The sunburned boys * who were * served the hot dogs * got * a stomach ache./,Did the boys serve the hot dogs?,N,,0,11,the,8,2,7,13,3,2,4,613,1562672823568,N,1870,1
191,1,5,target,target_2,C,/+/The sunburned boys * who were * served the hot dogs * got * a stomach ache./,Did the boys serve the hot dogs?,N,,0,11,hot,9,2,8,13,3,3,4,679,1562672824247,N,1870,1
191,1,5,target,target_2,C,/+/The sunburned boys * who were * served the hot dogs * got * a stomach ache./,Did the boys serve the hot dogs?,N,,0,11,dogs,10,2,9,13,3,4,4,684,1562672824931,N,1870,1
191,1,5,target,target_2,C,/+/The sunburned boys * who were * served the hot dogs * got * a stomach ache./,Did the boys serve the hot dogs?,N,,0,11,got,11,2,10,13,4,1,1,731,1562672825662,N,1870,1
191,1,5,target,target_2,C,/+/The sunburned boys * who were * served the hot dogs * got * a stomach ache./,Did the boys serve the hot dogs?,N,,0,11,a,12,2,11,13,5,1,3,845,1562672826507,N,1870,1
191,1,5,target,target_2,C,/+/The sunburned boys * who were * served the hot dogs * got * a stomach ache./,Did the boys serve the hot dogs?,N,,0,11,stomach,13,2,12,13,5,2,3,3798,1562672830305,N,1870,1
191,1,5,target,target_2,C,/+/The sunburned boys * who were * served the hot dogs * got * a stomach ache./,Did the boys serve the hot dogs?,N,,0,11,a,14,2,11,13,5,1,3,313,1562672830618,N,1870,1
191,1,5,target,target_2,C,/+/The sunburned boys * who were * served the hot dogs * got * a stomach ache./,Did the boys serve the hot dogs?,N,,0,11,got,15,2,10,13,4,1,1,272,1562672830890,N,1870,1
191,1,5,target,target_2,C,/+/The sunburned boys * who were * served the hot dogs * got * a stomach ache./,Did the boys serve the hot dogs?,N,,0,11,dogs,16,2,9,13,3,4,4,265,1562672831155,N,1870,1
191,1,5,target,target_2,C,/+/The sunburned boys * who were * served the hot dogs * got * a stomach ache./,Did the boys serve the hot dogs?,N,,0,11,hot,17,2,8,13,3,3,4,424,1562672831579,N,1870,1
191,1,5,target,target_2,C,/+/The sunburned boys * who were * served the hot dogs * got * a stomach ache./,Did the boys serve the hot dogs?,N,,0,11,the,18,2,7,13,3,2,4,340,1562672831919,N,1870,1
191,1,5,target,target_2,C,/+/The sunburned boys * who were * served the hot dogs * got * a stomach ache./,Did the boys serve the hot dogs?,N,,0,11,served,19,2,6,13,3,1,4,613,1562672832532,N,1870,1
191,1,5,target,target_2,C,/+/The sunburned boys * who were * served the hot dogs * got * a stomach ache./,Did the boys serve the hot dogs?,N,,0,11,the,20,2,7,13,3,2,4,307,1562672832839,N,1870,1
191,1,5,target,target_2,C,/+/The sunburned boys * who were * served the hot dogs * got * a stomach ache./,Did the boys serve the hot dogs?,N,,0,11,hot,21,2,8,13,3,3,4,270,1562672833109,N,1870,1
191,1,5,target,target_2,C,/+/The sunburned boys * who were * served the hot dogs * got * a stomach ache./,Did the boys serve the hot dogs?,N,,0,11,dogs,22,2,9,13,3,4,4,314,1562672833423,N,1870,1
191,1,5,target,target_2,C,/+/The sunburned boys * who were * served the hot dogs * got * a stomach ache./,Did the boys serve the hot dogs?,N,,0,11,got,23,2,10,13,4,1,1,285,1562672833708,N,1870,1
191,1,5,target,target_2,C,/+/The sunburned boys * who were * served the hot dogs * got * a stomach ache./,Did the boys serve the hot dogs?,N,,0,11,a,24,2,11,13,5,1,3,363,1562672834071,N,1870,1
191,1,5,target,target_2,C,/+/The sunburned boys * who were * served the hot dogs * got * a stomach ache./,Did the boys serve the hot dogs?,N,,0,11,stomach,25,2,12,13,5,2,3,320,1562672834391,N,1870,1
191,1,5,target,target_2,C,/+/The sunburned boys * who were * served the hot dogs * got * a stomach ache./,Did the boys serve the hot dogs?,N,,0,11,ache.,26,2,13,13,5,3,3,958,1562672835349,N,1870,1
191,1,6,filler,filler_17,,/+/The students who failed the exam were asked to take it again./,Should all students take the exam again?,N,,0,12,+,1,1,1,1,1,1,1,1061,1562672838782,N,4121,1
191,1,6,filler,filler_17,,/+/The students who failed the exam were asked to take it again./,Should all students take the exam again?,N,,0,12,The,2,2,1,12,1,1,12,739,1562672839521,N,4121,1
191,1,6,filler,filler_17,,/+/The students who failed the exam were asked to take it again./,Should all students take the exam again?,N,,0,12,students,3,2,2,12,1,2,12,893,1562672840414,N,4121,1
191,1,6,filler,filler_17,,/+/The students who failed the exam were asked to take it again./,Should all students take the exam again?,N,,0,12,who,4,2,3,12,1,3,12,509,1562672840923,N,4121,1
191,1,6,filler,filler_17,,/+/The students who failed the exam were asked to take it again./,Should all students take the exam again?,N,,0,12,failed,5,2,4,12,1,4,12,736,1562672841659,N,4121,1
191,1,6,filler,filler_17,,/+/The students who failed the exam were asked to take it again./,Should all students take the exam again?,N,,0,12,the,6,2,5,12,1,5,12,628,1562672842287,N,4121,1
191,1,6,filler,filler_17,,/+/The students who failed the exam were asked to take it again./,Should all students take the exam again?,N,,0,12,exam,7,2,6,12,1,6,12,774,1562672843061,N,4121,1
191,1,6,filler,filler_17,,/+/The students who failed the exam were asked to take it again./,Should all students take the exam again?,N,,0,12,were,8,2,7,12,1,7,12,659,1562672843720,N,4121,1
191,1,6,filler,filler_17,,/+/The students who failed the exam were asked to take it again./,Should all students take the exam again?,N,,0,12,asked,9,2,8,12,1,8,12,557,1562672844277,N,4121,1
191,1,6,filler,filler_17,,/+/The students who failed the exam were asked to take it again./,Should all students take the exam again?,N,,0,12,to,10,2,9,12,1,9,12,504,1562672844781,N,4121,1
191,1,6,filler,filler_17,,/+/The students who failed the exam were asked to take it again./,Should all students take the exam again?,N,,0,12,take,11,2,10,12,1,10,12,1002,1562672845783,N,4121,1
191,1,6,filler,filler_17,,/+/The students who failed the exam were asked to take it again./,Should all students take the exam again?,N,,0,12,it,12,2,11,12,1,11,12,1330,1562672847113,N,4121,1
191,1,6,filler,filler_17,,/+/The students who failed the exam were asked to take it again./,Should all students take the exam again?,N,,0,12,again.,13,2,12,12,1,12,12,773,1562672847886,N,4121,1
191,1,6,filler,filler_17,,/+/The students who failed the exam were asked to take it again./,Should all students take the exam again?,N,,0,12,it,14,2,11,12,1,11,12,301,1562672848187,N,4121,1
191,1,6,filler,filler_17,,/+/The students who failed the exam were asked to take it again./,Should all students take the exam again?,N,,0,12,take,15,2,10,12,1,10,12,253,1562672848440,N,4121,1
191,1,6,filler,filler_17,,/+/The students who failed the exam were asked to take it again./,Should all students take the exam again?,N,,0,12,to,16,2,9,12,1,9,12,189,1562672848629,N,4121,1
191,1,6,filler,filler_17,,/+/The students who failed the exam were asked to take it again./,Should all students take the exam again?,N,,0,12,asked,17,2,8,12,1,8,12,278,1562672848907,N,4121,1
191,1,6,filler,filler_17,,/+/The students who failed the exam were asked to take it again./,Should all students take the exam again?,N,,0,12,were,18,2,7,12,1,7,12,392,1562672849299,N,4121,1
191,1,6,filler,filler_17,,/+/The students who failed the exam were asked to take it again./,Should all students take the exam again?,N,,0,12,exam,19,2,6,12,1,6,12,260,1562672849559,N,4121,1
191,1,6,filler,filler_17,,/+/The students who failed the exam were asked to take it again./,Should all students take the exam again?,N,,0,12,the,20,2,5,12,1,5,12,252,1562672849811,N,4121,1
191,1,6,filler,filler_17,,/+/The students who failed the exam were asked to take it again./,Should all students take the exam again?,N,,0,12,failed,21,2,4,12,1,4,12,405,1562672850216,N,4121,1
191,1,6,filler,filler_17,,/+/The students who failed the exam were asked to take it again./,Should all students take the exam again?,N,,0,12,who,22,2,3,12,1,3,12,760,1562672850976,N,4121,1
191,1,6,filler,filler_17,,/+/The students who failed the exam were asked to take it again./,Should all students take the exam again?,N,,0,12,students,23,2,2,12,1,2,12,426,1562672851402,N,4121,1
191,1,6,filler,filler_17,,/+/The students who failed the exam were asked to take it again./,Should all students take the exam again?,N,,0,12,The,24,2,1,12,1,1,12,479,1562672851881,N,4121,1
191,1,6,filler,filler_17,,/+/The students who failed the exam were asked to take it again./,Should all students take the exam again?,N,,0,12,students,25,2,2,12,1,2,12,314,1562672852195,N,4121,1
191,1,6,filler,filler_17,,/+/The students who failed the exam were asked to take it again./,Should all students take the exam again?,N,,0,12,who,26,2,3,12,1,3,12,222,1562672852417,N,4121,1
191,1,6,filler,filler_17,,/+/The students who failed the exam were asked to take it again./,Should all students take the exam again?,N,,0,12,failed,27,2,4,12,1,4,12,250,1562672852667,N,4121,1
191,1,6,filler,filler_17,,/+/The students who failed the exam were asked to take it again./,Should all students take the exam again?,N,,0,12,the,28,2,5,12,1,5,12,233,1562672852900,N,4121,1
191,1,6,filler,filler_17,,/+/The students who failed the exam were asked to take it again./,Should all students take the exam again?,N,,0,12,exam,29,2,6,12,1,6,12,251,1562672853151,N,4121,1
191,1,6,filler,filler_17,,/+/The students who failed the exam were asked to take it again./,Should all students take the exam again?,N,,0,12,were,30,2,7,12,1,7,12,172,1562672853323,N,4121,1
191,1,6,filler,filler_17,,/+/The students who failed the exam were asked to take it again./,Should all students take the exam again?,N,,0,12,asked,31,2,8,12,1,8,12,385,1562672853708,N,4121,1
191,1,6,filler,filler_17,,/+/The students who failed the exam were asked to take it again./,Should all students take the exam again?,N,,0,12,to,32,2,9,12,1,9,12,337,1562672854045,N,4121,1
191,1,6,filler,filler_17,,/+/The students who failed the exam were asked to take it again./,Should all students take the exam again?,N,,0,12,take,33,2,10,12,1,10,12,397,1562672854442,N,4121,1
191,1,6,filler,filler_17,,/+/The students who failed the exam were asked to take it again./,Should all students take the exam again?,N,,0,12,it,34,2,11,12,1,11,12,354,1562672854796,N,4121,1
191,1,6,filler,filler_17,,/+/The students who failed the exam were asked to take it again./,Should all students take the exam again?,N,,0,12,again.,35,2,12,12,1,12,12,710,1562672855506,N,4121,1
191,1,7,filler,filler_25,,/+/The suitcase which Mike bought has been broken down by his son./,Has the suitcase been broken by Mike?,N,,0,13,+,1,1,1,1,1,1,1,2219,1562672862363,N,2467,1
191,1,7,filler,filler_25,,/+/The suitcase which Mike bought has been broken down by his son./,Has the suitcase been broken by Mike?,N,,0,13,The,2,2,1,12,1,1,12,785,1562672863148,N,2467,1
191,1,7,filler,filler_25,,/+/The suitcase which Mike bought has been broken down by his son./,Has the suitcase been broken by Mike?,N,,0,13,suitcase,3,2,2,12,1,2,12,1815,1562672864963,N,2467,1
191,1,7,filler,filler_25,,/+/The suitcase which Mike bought has been broken down by his son./,Has the suitcase been broken by Mike?,N,,0,13,which,4,2,3,12,1,3,12,743,1562672865706,N,2467,1
191,1,7,filler,filler_25,,/+/The suitcase which Mike bought has been broken down by his son./,Has the suitcase been broken by Mike?,N,,0,13,Mike,5,2,4,12,1,4,12,1297,1562672867003,N,2467,1
191,1,7,filler,filler_25,,/+/The suitcase which Mike bought has been broken down by his son./,Has the suitcase been broken by Mike?,N,,0,13,bought,6,2,5,12,1,5,12,1115,1562672868118,N,2467,1
191,1,7,filler,filler_25,,/+/The suitcase which Mike bought has been broken down by his son./,Has the suitcase been broken by Mike?,N,,0,13,has,7,2,6,12,1,6,12,1322,1562672869440,N,2467,1
191,1,7,filler,filler_25,,/+/The suitcase which Mike bought has been broken down by his son./,Has the suitcase been broken by Mike?,N,,0,13,been,8,2,7,12,1,7,12,727,1562672870167,N,2467,1
191,1,7,filler,filler_25,,/+/The suitcase which Mike bought has been broken down by his son./,Has the suitcase been broken by Mike?,N,,0,13,broken,9,2,8,12,1,8,12,2855,1562672873022,N,2467,1
191,1,7,filler,filler_25,,/+/The suitcase which Mike bought has been broken down by his son./,Has the suitcase been broken by Mike?,N,,0,13,down,10,2,9,12,1,9,12,1063,1562672874085,N,2467,1
191,1,7,filler,filler_25,,/+/The suitcase which Mike bought has been broken down by his son./,Has the suitcase been broken by Mike?,N,,0,13,by,11,2,10,12,1,10,12,692,1562672874777,N,2467,1
191,1,7,filler,filler_25,,/+/The suitcase which Mike bought has been broken down by his son./,Has the suitcase been broken by Mike?,N,,0,13,his,12,2,11,12,1,11,12,671,1562672875448,N,2467,1
191,1,7,filler,filler_25,,/+/The suitcase which Mike bought has been broken down by his son./,Has the suitcase been broken by Mike?,N,,0,13,son.,13,2,12,12,1,12,12,2461,1562672877909,N,2467,1
191,1,7,filler,filler_25,,/+/The suitcase which Mike bought has been broken down by his son./,Has the suitcase been broken by Mike?,N,,0,13,his,14,2,11,12,1,11,12,629,1562672878538,N,2467,1
191,1,7,filler,filler_25,,/+/The suitcase which Mike bought has been broken down by his son./,Has the suitcase been broken by Mike?,N,,0,13,son.,15,2,12,12,1,12,12,510,1562672879048,N,2467,1
191,1,8,filler,filler_24,,/+/The roommate has married the man who comes from the west of China./,Has the roomate married?,Y,,0,14,+,1,1,1,1,1,1,1,943,1562672882976,Y,3029,1
191,1,8,filler,filler_24,,/+/The roommate has married the man who comes from the west of China./,Has the roomate married?,Y,,0,14,The,2,2,1,13,1,1,13,561,1562672883537,Y,3029,1
191,1,8,filler,filler_24,,/+/The roommate has married the man who comes from the west of China./,Has the roomate married?,Y,,0,14,roommate,3,2,2,13,1,2,13,848,1562672884385,Y,3029,1
191,1,8,filler,filler_24,,/+/The roommate has married the man who comes from the west of China./,Has the roomate married?,Y,,0,14,has,4,2,3,13,1,3,13,882,1562672885267,Y,3029,1
191,1,8,filler,filler_24,,/+/The roommate has married the man who comes from the west of China./,Has the roomate married?,Y,,0,14,married,5,2,4,13,1,4,13,1088,1562672886355,Y,3029,1
191,1,8,filler,filler_24,,/+/The roommate has married the man who comes from the west of China./,Has the roomate married?,Y,,0,14,the,6,2,5,13,1,5,13,789,1562672887144,Y,3029,1
191,1,8,filler,filler_24,,/+/The roommate has married the man who comes from the west of China./,Has the roomate married?,Y,,0,14,man,7,2,6,13,1,6,13,676,1562672887820,Y,3029,1
191,1,8,filler,filler_24,,/+/The roommate has married the man who comes from the west of China./,Has the roomate married?,Y,,0,14,who,8,2,7,13,1,7,13,606,1562672888426,Y,3029,1
191,1,8,filler,filler_24,,/+/The roommate has married the man who comes from the west of China./,Has the roomate married?,Y,,0,14,comes,9,2,8,13,1,8,13,712,1562672889138,Y,3029,1
191,1,8,filler,filler_24,,/+/The roommate has married the man who comes from the west of China./,Has the roomate married?,Y,,0,14,from,10,2,9,13,1,9,13,763,1562672889901,Y,3029,1
191,1,8,filler,filler_24,,/+/The roommate has married the man who comes from the west of China./,Has the roomate married?,Y,,0,14,the,11,2,10,13,1,10,13,799,1562672890700,Y,3029,1
191,1,8,filler,filler_24,,/+/The roommate has married the man who comes from the west of China./,Has the roomate married?,Y,,0,14,west,12,2,11,13,1,11,13,3049,1562672893749,Y,3029,1
191,1,8,filler,filler_24,,/+/The roommate has married the man who comes from the west of China./,Has the roomate married?,Y,,0,14,of,13,2,12,13,1,12,13,543,1562672894292,Y,3029,1
191,1,8,filler,filler_24,,/+/The roommate has married the man who comes from the west of China./,Has the roomate married?,Y,,0,14,China.,14,2,13,13,1,13,13,3238,1562672897530,Y,3029,1
191,1,8,filler,filler_24,,/+/The roommate has married the man who comes from the west of China./,Has the roomate married?,Y,,0,14,of,15,2,12,13,1,12,13,272,1562672897802,Y,3029,1
191,1,8,filler,filler_24,,/+/The roommate has married the man who comes from the west of China./,Has the roomate married?,Y,,0,14,west,16,2,11,13,1,11,13,205,1562672898007,Y,3029,1
191,1,8,filler,filler_24,,/+/The roommate has married the man who comes from the west of China./,Has the roomate married?,Y,,0,14,the,17,2,10,13,1,10,13,231,1562672898238,Y,3029,1
191,1,8,filler,filler_24,,/+/The roommate has married the man who comes from the west of China./,Has the roomate married?,Y,,0,14,from,18,2,9,13,1,9,13,235,1562672898473,Y,3029,1
191,1,8,filler,filler_24,,/+/The roommate has married the man who comes from the west of China./,Has the roomate married?,Y,,0,14,comes,19,2,8,13,1,8,13,186,1562672898659,Y,3029,1
191,1,8,filler,filler_24,,/+/The roommate has married the man who comes from the west of China./,Has the roomate married?,Y,,0,14,who,20,2,7,13,1,7,13,232,1562672898891,Y,3029,1
191,1,8,filler,filler_24,,/+/The roommate has married the man who comes from the west of China./,Has the roomate married?,Y,,0,14,man,21,2,6,13,1,6,13,201,1562672899092,Y,3029,1
191,1,8,filler,filler_24,,/+/The roommate has married the man who comes from the west of China./,Has the roomate married?,Y,,0,14,the,22,2,5,13,1,5,13,220,1562672899312,Y,3029,1
191,1,8,filler,filler_24,,/+/The roommate has married the man who comes from the west of China./,Has the roomate married?,Y,,0,14,married,23,2,4,13,1,4,13,214,1562672899526,Y,3029,1
191,1,8,filler,filler_24,,/+/The roommate has married the man who comes from the west of China./,Has the roomate married?,Y,,0,14,has,24,2,3,13,1,3,13,408,1562672899934,Y,3029,1
191,1,8,filler,filler_24,,/+/The roommate has married the man who comes from the west of China./,Has the roomate married?,Y,,0,14,roommate,25,2,2,13,1,2,13,256,1562672900190,Y,3029,1
191,1,8,filler,filler_24,,/+/The roommate has married the man who comes from the west of China./,Has the roomate married?,Y,,0,14,The,26,2,1,13,1,1,13,595,1562672900785,Y,3029,1
191,1,8,filler,filler_24,,/+/The roommate has married the man who comes from the west of China./,Has the roomate married?,Y,,0,14,roommate,27,2,2,13,1,2,13,210,1562672900995,Y,3029,1
191,1,8,filler,filler_24,,/+/The roommate has married the man who comes from the west of China./,Has the roomate married?,Y,,0,14,has,28,2,3,13,1,3,13,186,1562672901181,Y,3029,1
191,1,8,filler,filler_24,,/+/The roommate has married the man who comes from the west of China./,Has the roomate married?,Y,,0,14,married,29,2,4,13,1,4,13,231,1562672901412,Y,3029,1
191,1,8,filler,filler_24,,/+/The roommate has married the man who comes from the west of China./,Has the roomate married?,Y,,0,14,the,30,2,5,13,1,5,13,265,1562672901677,Y,3029,1
191,1,8,filler,filler_24,,/+/The roommate has married the man who comes from the west of China./,Has the roomate married?,Y,,0,14,man,31,2,6,13,1,6,13,266,1562672901943,Y,3029,1
191,1,8,filler,filler_24,,/+/The roommate has married the man who comes from the west of China./,Has the roomate married?,Y,,0,14,who,32,2,7,13,1,7,13,486,1562672902429,Y,3029,1
191,1,8,filler,filler_24,,/+/The roommate has married the man who comes from the west of China./,Has the roomate married?,Y,,0,14,comes,33,2,8,13,1,8,13,313,1562672902742,Y,3029,1
191,1,8,filler,filler_24,,/+/The roommate has married the man who comes from the west of China./,Has the roomate married?,Y,,0,14,from,34,2,9,13,1,9,13,285,1562672903027,Y,3029,1
191,1,8,filler,filler_24,,/+/The roommate has married the man who comes from the west of China./,Has the roomate married?,Y,,0,14,the,35,2,10,13,1,10,13,347,1562672903374,Y,3029,1
191,1,8,filler,filler_24,,/+/The roommate has married the man who comes from the west of China./,Has the roomate married?,Y,,0,14,west,36,2,11,13,1,11,13,272,1562672903646,Y,3029,1
191,1,8,filler,filler_24,,/+/The roommate has married the man who comes from the west of China./,Has the roomate married?,Y,,0,14,of,37,2,12,13,1,12,13,315,1562672903961,Y,3029,1
191,1,8,filler,filler_24,,/+/The roommate has married the man who comes from the west of China./,Has the roomate married?,Y,,0,14,China.,38,2,13,13,1,13,13,379,1562672904340,Y,3029,1
191,1,9,target,target_15,G,/+/The confused student * asked about a question * lowered * his head silently./,Did the student ask about a question?,N,,0,15,+,1,1,1,1,1,1,1,1104,1562672908981,N,1625,1
191,1,9,target,target_15,G,/+/The confused student * asked about a question * lowered * his head silently./,Did the student ask about a question?,N,,0,15,The,2,2,1,11,1,1,3,1243,1562672910224,N,1625,1
191,1,9,target,target_15,G,/+/The confused student * asked about a question * lowered * his head silently./,Did the student ask about a question?,N,,0,15,confused,3,2,2,11,1,2,3,1236,1562672911460,N,1625,1
191,1,9,target,target_15,G,/+/The confused student * asked about a question * lowered * his head silently./,Did the student ask about a question?,N,,0,15,student,4,2,3,11,1,3,3,863,1562672912323,N,1625,1
191,1,9,target,target_15,G,/+/The confused student * asked about a question * lowered * his head silently./,Did the student ask about a question?,N,,0,15,asked,5,2,4,11,2,1,4,1382,1562672913705,N,1625,1
191,1,9,target,target_15,G,/+/The confused student * asked about a question * lowered * his head silently./,Did the student ask about a question?,N,,0,15,about,6,2,5,11,2,2,4,807,1562672914512,N,1625,1
191,1,9,target,target_15,G,/+/The confused student * asked about a question * lowered * his head silently./,Did the student ask about a question?,N,,0,15,a,7,2,6,11,2,3,4,819,1562672915331,N,1625,1
191,1,9,target,target_15,G,/+/The confused student * asked about a question * lowered * his head silently./,Did the student ask about a question?,N,,0,15,question,8,2,7,11,2,4,4,1254,1562672916585,N,1625,1
191,1,9,target,target_15,G,/+/The confused student * asked about a question * lowered * his head silently./,Did the student ask about a question?,N,,0,15,lowered,9,2,8,11,3,1,1,1425,1562672918010,N,1625,1
191,1,9,target,target_15,G,/+/The confused student * asked about a question * lowered * his head silently./,Did the student ask about a question?,N,,0,15,question,10,2,7,11,2,4,4,717,1562672918727,N,1625,1
191,1,9,target,target_15,G,/+/The confused student * asked about a question * lowered * his head silently./,Did the student ask about a question?,N,,0,15,a,11,2,6,11,2,3,4,266,1562672918993,N,1625,1
191,1,9,target,target_15,G,/+/The confused student * asked about a question * lowered * his head silently./,Did the student ask about a question?,N,,0,15,question,12,2,7,11,2,4,4,345,1562672919338,N,1625,1
191,1,9,target,target_15,G,/+/The confused student * asked about a question * lowered * his head silently./,Did the student ask about a question?,N,,0,15,lowered,13,2,8,11,3,1,1,381,1562672919719,N,1625,1
191,1,9,target,target_15,G,/+/The confused student * asked about a question * lowered * his head silently./,Did the student ask about a question?,N,,0,15,his,14,2,9,11,4,1,3,525,1562672920244,N,1625,1
191,1,9,target,target_15,G,/+/The confused student * asked about a question * lowered * his head silently./,Did the student ask about a question?,N,,0,15,head,15,2,10,11,4,2,3,1673,1562672921917,N,1625,1
191,1,9,target,target_15,G,/+/The confused student * asked about a question * lowered * his head silently./,Did the student ask about a question?,N,,0,15,silently.,16,2,11,11,4,3,3,3512,1562672925429,N,1625,1
191,1,9,target,target_15,G,/+/The confused student * asked about a question * lowered * his head silently./,Did the student ask about a question?,N,,0,15,head,17,2,10,11,4,2,3,292,1562672925721,N,1625,1
191,1,9,target,target_15,G,/+/The confused student * asked about a question * lowered * his head silently./,Did the student ask about a question?,N,,0,15,his,18,2,9,11,4,1,3,238,1562672925959,N,1625,1
191,1,9,target,target_15,G,/+/The confused student * asked about a question * lowered * his head silently./,Did the student ask about a question?,N,,0,15,lowered,19,2,8,11,3,1,1,282,1562672926241,N,1625,1
191,1,9,target,target_15,G,/+/The confused student * asked about a question * lowered * his head silently./,Did the student ask about a question?,N,,0,15,question,20,2,7,11,2,4,4,282,1562672926523,N,1625,1
191,1,9,target,target_15,G,/+/The confused student * asked about a question * lowered * his head silently./,Did the student ask about a question?,N,,0,15,a,21,2,6,11,2,3,4,252,1562672926775,N,1625,1
191,1,9,target,target_15,G,/+/The confused student * asked about a question * lowered * his head silently./,Did the student ask about a question?,N,,0,15,about,22,2,5,11,2,2,4,469,1562672927244,N,1625,1
191,1,9,target,target_15,G,/+/The confused student * asked about a question * lowered * his head silently./,Did the student ask about a question?,N,,0,15,asked,23,2,4,11,2,1,4,282,1562672927526,N,1625,1
191,1,9,target,target_15,G,/+/The confused student * asked about a question * lowered * his head silently./,Did the student ask about a question?,N,,0,15,student,24,2,3,11,1,3,3,424,1562672927950,N,1625,1
191,1,9,target,target_15,G,/+/The confused student * asked about a question * lowered * his head silently./,Did the student ask about a question?,N,,0,15,confused,25,2,2,11,1,2,3,433,1562672928383,N,1625,1
191,1,9,target,target_15,G,/+/The confused student * asked about a question * lowered * his head silently./,Did the student ask about a question?,N,,0,15,student,26,2,3,11,1,3,3,246,1562672928629,N,1625,1
191,1,9,target,target_15,G,/+/The confused student * asked about a question * lowered * his head silently./,Did the student ask about a question?,N,,0,15,asked,27,2,4,11,2,1,4,267,1562672928896,N,1625,1
191,1,9,target,target_15,G,/+/The confused student * asked about a question * lowered * his head silently./,Did the student ask about a question?,N,,0,15,about,28,2,5,11,2,2,4,251,1562672929147,N,1625,1
191,1,9,target,target_15,G,/+/The confused student * asked about a question * lowered * his head silently./,Did the student ask about a question?,N,,0,15,a,29,2,6,11,2,3,4,391,1562672929538,N,1625,1
191,1,9,target,target_15,G,/+/The confused student * asked about a question * lowered * his head silently./,Did the student ask about a question?,N,,0,15,question,30,2,7,11,2,4,4,524,1562672930062,N,1625,1
191,1,9,target,target_15,G,/+/The confused student * asked about a question * lowered * his head silently./,Did the student ask about a question?,N,,0,15,lowered,31,2,8,11,3,1,1,566,1562672930628,N,1625,1
191,1,9,target,target_15,G,/+/The confused student * asked about a question * lowered * his head silently./,Did the student ask about a question?,N,,0,15,his,32,2,9,11,4,1,3,1986,1562672932614,N,1625,1
191,1,9,target,target_15,G,/+/The confused student * asked about a question * lowered * his head silently./,Did the student ask about a question?,N,,0,15,lowered,33,2,8,11,3,1,1,256,1562672932870,N,1625,1
191,1,9,target,target_15,G,/+/The confused student * asked about a question * lowered * his head silently./,Did the student ask about a question?,N,,0,15,question,34,2,7,11,2,4,4,220,1562672933090,N,1625,1
191,1,9,target,target_15,G,/+/The confused student * asked about a question * lowered * his head silently./,Did the student ask about a question?,N,,0,15,a,35,2,6,11,2,3,4,203,1562672933293,N,1625,1
191,1,9,target,target_15,G,/+/The confused student * asked about a question * lowered * his head silently./,Did the student ask about a question?,N,,0,15,about,36,2,5,11,2,2,4,199,1562672933492,N,1625,1
191,1,9,target,target_15,G,/+/The confused student * asked about a question * lowered * his head silently./,Did the student ask about a question?,N,,0,15,asked,37,2,4,11,2,1,4,262,1562672933754,N,1625,1
191,1,9,target,target_15,G,/+/The confused student * asked about a question * lowered * his head silently./,Did the student ask about a question?,N,,0,15,student,38,2,3,11,1,3,3,486,1562672934240,N,1625,1
191,1,9,target,target_15,G,/+/The confused student * asked about a question * lowered * his head silently./,Did the student ask about a question?,N,,0,15,confused,39,2,2,11,1,2,3,656,1562672934896,N,1625,1
191,1,9,target,target_15,G,/+/The confused student * asked about a question * lowered * his head silently./,Did the student ask about a question?,N,,0,15,The,40,2,1,11,1,1,3,408,1562672935304,N,1625,1
191,1,9,target,target_15,G,/+/The confused student * asked about a question * lowered * his head silently./,Did the student ask about a question?,N,,0,15,confused,41,2,2,11,1,2,3,286,1562672935590,N,1625,1
191,1,9,target,target_15,G,/+/The confused student * asked about a question * lowered * his head silently./,Did the student ask about a question?,N,,0,15,student,42,2,3,11,1,3,3,283,1562672935873,N,1625,1
191,1,9,target,target_15,G,/+/The confused student * asked about a question * lowered * his head silently./,Did the student ask about a question?,N,,0,15,asked,43,2,4,11,2,1,4,240,1562672936113,N,1625,1
191,1,9,target,target_15,G,/+/The confused student * asked about a question * lowered * his head silently./,Did the student ask about a question?,N,,0,15,about,44,2,5,11,2,2,4,234,1562672936347,N,1625,1
191,1,9,target,target_15,G,/+/The confused student * asked about a question * lowered * his head silently./,Did the student ask about a question?,N,,0,15,a,45,2,6,11,2,3,4,762,1562672937109,N,1625,1
191,1,9,target,target_15,G,/+/The confused student * asked about a question * lowered * his head silently./,Did the student ask about a question?,N,,0,15,question,46,2,7,11,2,4,4,536,1562672937645,N,1625,1
191,1,9,target,target_15,G,/+/The confused student * asked about a question * lowered * his head silently./,Did the student ask about a question?,N,,0,15,lowered,47,2,8,11,3,1,1,345,1562672937990,N,1625,1
191,1,9,target,target_15,G,/+/The confused student * asked about a question * lowered * his head silently./,Did the student ask about a question?,N,,0,15,his,48,2,9,11,4,1,3,397,1562672938387,N,1625,1
191,1,9,target,target_15,G,/+/The confused student * asked about a question * lowered * his head silently./,Did the student ask about a question?,N,,0,15,head,49,2,10,11,4,2,3,449,1562672938836,N,1625,1
191,1,9,target,target_15,G,/+/The confused student * asked about a question * lowered * his head silently./,Did the student ask about a question?,N,,0,15,silently.,50,2,11,11,4,3,3,497,1562672939333,N,1625,1
191,1,10,filler,filler_22,,/+/The girl's life was saved because the doctor acted so well./,Did the girl die?,N,,0,16,+,1,1,1,1,1,1,1,1167,1562672942642,N,1094,1
191,1,10,filler,filler_22,,/+/The girl's life was saved because the doctor acted so well./,Did the girl die?,N,,0,16,The,2,2,1,11,1,1,11,685,1562672943327,N,1094,1
191,1,10,filler,filler_22,,/+/The girl's life was saved because the doctor acted so well./,Did the girl die?,N,,0,16,girl's,3,2,2,11,1,2,11,997,1562672944324,N,1094,1
191,1,10,filler,filler_22,,/+/The girl's life was saved because the doctor acted so well./,Did the girl die?,N,,0,16,life,4,2,3,11,1,3,11,924,1562672945248,N,1094,1
191,1,10,filler,filler_22,,/+/The girl's life was saved because the doctor acted so well./,Did the girl die?,N,,0,16,was,5,2,4,11,1,4,11,1121,1562672946369,N,1094,1
191,1,10,filler,filler_22,,/+/The girl's life was saved because the doctor acted so well./,Did the girl die?,N,,0,16,saved,6,2,5,11,1,5,11,728,1562672947097,N,1094,1
191,1,10,filler,filler_22,,/+/The girl's life was saved because the doctor acted so well./,Did the girl die?,N,,0,16,because,7,2,6,11,1,6,11,1765,1562672948862,N,1094,1
191,1,10,filler,filler_22,,/+/The girl's life was saved because the doctor acted so well./,Did the girl die?,N,,0,16,the,8,2,7,11,1,7,11,553,1562672949415,N,1094,1
191,1,10,filler,filler_22,,/+/The girl's life was saved because the doctor acted so well./,Did the girl die?,N,,0,16,doctor,9,2,8,11,1,8,11,2531,1562672951946,N,1094,1
191,1,10,filler,filler_22,,/+/The girl's life was saved because the doctor acted so well./,Did the girl die?,N,,0,16,acted,10,2,9,11,1,9,11,1712,1562672953658,N,1094,1
191,1,10,filler,filler_22,,/+/The girl's life was saved because the doctor acted so well./,Did the girl die?,N,,0,16,so,11,2,10,11,1,10,11,720,1562672954378,N,1094,1
191,1,10,filler,filler_22,,/+/The girl's life was saved because the doctor acted so well./,Did the girl die?,N,,0,16,well.,12,2,11,11,1,11,11,750,1562672955128,N,1094,1
191,1,10,filler,filler_22,,/+/The girl's life was saved because the doctor acted so well./,Did the girl die?,N,,0,16,so,13,2,10,11,1,10,11,300,1562672955428,N,1094,1
191,1,10,filler,filler_22,,/+/The girl's life was saved because the doctor acted so well./,Did the girl die?,N,,0,16,acted,14,2,9,11,1,9,11,238,1562672955666,N,1094,1
191,1,10,filler,filler_22,,/+/The girl's life was saved because the doctor acted so well./,Did the girl die?,N,,0,16,doctor,15,2,8,11,1,8,11,328,1562672955994,N,1094,1
191,1,10,filler,filler_22,,/+/The girl's life was saved because the doctor acted so well./,Did the girl die?,N,,0,16,the,16,2,7,11,1,7,11,225,1562672956219,N,1094,1
191,1,10,filler,filler_22,,/+/The girl's life was saved because the doctor acted so well./,Did the girl die?,N,,0,16,because,17,2,6,11,1,6,11,263,1562672956482,N,1094,1
191,1,10,filler,filler_22,,/+/The girl's life was saved because the doctor acted so well./,Did the girl die?,N,,0,16,saved,18,2,5,11,1,5,11,329,1562672956811,N,1094,1
191,1,10,filler,filler_22,,/+/The girl's life was saved because the doctor acted so well./,Did the girl die?,N,,0,16,was,19,2,4,11,1,4,11,381,1562672957192,N,1094,1
191,1,10,filler,filler_22,,/+/The girl's life was saved because the doctor acted so well./,Did the girl die?,N,,0,16,life,20,2,3,11,1,3,11,338,1562672957530,N,1094,1
191,1,10,filler,filler_22,,/+/The girl's life was saved because the doctor acted so well./,Did the girl die?,N,,0,16,girl's,21,2,2,11,1,2,11,428,1562672957958,N,1094,1
191,1,10,filler,filler_22,,/+/The girl's life was saved because the doctor acted so well./,Did the girl die?,N,,0,16,The,22,2,1,11,1,1,11,501,1562672958459,N,1094,1
191,1,10,filler,filler_22,,/+/The girl's life was saved because the doctor acted so well./,Did the girl die?,N,,0,16,girl's,23,2,2,11,1,2,11,448,1562672958907,N,1094,1
191,1,10,filler,filler_22,,/+/The girl's life was saved because the doctor acted so well./,Did the girl die?,N,,0,16,life,24,2,3,11,1,3,11,327,1562672959234,N,1094,1
191,1,10,filler,filler_22,,/+/The girl's life was saved because the doctor acted so well./,Did the girl die?,N,,0,16,was,25,2,4,11,1,4,11,425,1562672959659,N,1094,1
191,1,10,filler,filler_22,,/+/The girl's life was saved because the doctor acted so well./,Did the girl die?,N,,0,16,saved,26,2,5,11,1,5,11,403,1562672960062,N,1094,1
191,1,10,filler,filler_22,,/+/The girl's life was saved because the doctor acted so well./,Did the girl die?,N,,0,16,because,27,2,6,11,1,6,11,1821,1562672961883,N,1094,1
191,1,10,filler,filler_22,,/+/The girl's life was saved because the doctor acted so well./,Did the girl die?,N,,0,16,the,28,2,7,11,1,7,11,338,1562672962221,N,1094,1
191,1,10,filler,filler_22,,/+/The girl's life was saved because the doctor acted so well./,Did the girl die?,N,,0,16,doctor,29,2,8,11,1,8,11,1145,1562672963366,N,1094,1
191,1,10,filler,filler_22,,/+/The girl's life was saved because the doctor acted so well./,Did the girl die?,N,,0,16,acted,30,2,9,11,1,9,11,2451,1562672965817,N,1094,1
191,1,10,filler,filler_22,,/+/The girl's life was saved because the doctor acted so well./,Did the girl die?,N,,0,16,doctor,31,2,8,11,1,8,11,579,1562672966396,N,1094,1
191,1,10,filler,filler_22,,/+/The girl's life was saved because the doctor acted so well./,Did the girl die?,N,,0,16,acted,32,2,9,11,1,9,11,381,1562672966777,N,1094,1
191,1,10,filler,filler_22,,/+/The girl's life was saved because the doctor acted so well./,Did the girl die?,N,,0,16,so,33,2,10,11,1,10,11,478,1562672967255,N,1094,1
191,1,10,filler,filler_22,,/+/The girl's life was saved because the doctor acted so well./,Did the girl die?,N,,0,16,well.,34,2,11,11,1,11,11,827,1562672968082,N,1094,1
191,1,11,target,target_4,G,/+/The convicted criminal * watched at the railway station * was * following the policeman./,Did the policeman watch the criminal?,Y,,0,17,+,1,1,1,1,1,1,1,978,1562672970677,N,48129,0
191,1,11,target,target_4,G,/+/The convicted criminal * watched at the railway station * was * following the policeman./,Did the policeman watch the criminal?,Y,,0,17,The,2,2,1,12,1,1,3,688,1562672971365,N,48129,0
191,1,11,target,target_4,G,/+/The convicted criminal * watched at the railway station * was * following the policeman./,Did the policeman watch the criminal?,Y,,0,17,convicted,3,2,2,12,1,2,3,1375,1562672972740,N,48129,0
191,1,11,target,target_4,G,/+/The convicted criminal * watched at the railway station * was * following the policeman./,Did the policeman watch the criminal?,Y,,0,17,criminal,4,2,3,12,1,3,3,1849,1562672974589,N,48129,0
191,1,11,target,target_4,G,/+/The convicted criminal * watched at the railway station * was * following the policeman./,Did the policeman watch the criminal?,Y,,0,17,watched,5,2,4,12,2,1,5,1510,1562672976099,N,48129,0
191,1,11,target,target_4,G,/+/The convicted criminal * watched at the railway station * was * following the policeman./,Did the policeman watch the criminal?,Y,,0,17,at,6,2,5,12,2,2,5,863,1562672976962,N,48129,0
191,1,11,target,target_4,G,/+/The convicted criminal * watched at the railway station * was * following the policeman./,Did the policeman watch the criminal?,Y,,0,17,the,7,2,6,12,2,3,5,823,1562672977785,N,48129,0
191,1,11,target,target_4,G,/+/The convicted criminal * watched at the railway station * was * following the policeman./,Did the policeman watch the criminal?,Y,,0,17,railway,8,2,7,12,2,4,5,1052,1562672978837,N,48129,0
191,1,11,target,target_4,G,/+/The convicted criminal * watched at the railway station * was * following the policeman./,Did the policeman watch the criminal?,Y,,0,17,station,9,2,8,12,2,5,5,927,1562672979764,N,48129,0
191,1,11,target,target_4,G,/+/The convicted criminal * watched at the railway station * was * following the policeman./,Did the policeman watch the criminal?,Y,,0,17,was,10,2,9,12,3,1,1,561,1562672980325,N,48129,0
191,1,11,target,target_4,G,/+/The convicted criminal * watched at the railway station * was * following the policeman./,Did the policeman watch the criminal?,Y,,0,17,following,11,2,10,12,4,1,3,2048,1562672982373,N,48129,0
191,1,11,target,target_4,G,/+/The convicted criminal * watched at the railway station * was * following the policeman./,Did the policeman watch the criminal?,Y,,0,17,the,12,2,11,12,4,2,3,541,1562672982914,N,48129,0
191,1,11,target,target_4,G,/+/The convicted criminal * watched at the railway station * was * following the policeman./,Did the policeman watch the criminal?,Y,,0,17,policeman.,13,2,12,12,4,3,3,1065,1562672983979,N,48129,0
191,1,11,target,target_4,G,/+/The convicted criminal * watched at the railway station * was * following the policeman./,Did the policeman watch the criminal?,Y,,0,17,the,14,2,11,12,4,2,3,257,1562672984236,N,48129,0
191,1,11,target,target_4,G,/+/The convicted criminal * watched at the railway station * was * following the policeman./,Did the policeman watch the criminal?,Y,,0,17,following,15,2,10,12,4,1,3,361,1562672984597,N,48129,0
191,1,11,target,target_4,G,/+/The convicted criminal * watched at the railway station * was * following the policeman./,Did the policeman watch the criminal?,Y,,0,17,was,16,2,9,12,3,1,1,257,1562672984854,N,48129,0
191,1,11,target,target_4,G,/+/The convicted criminal * watched at the railway station * was * following the policeman./,Did the policeman watch the criminal?,Y,,0,17,station,17,2,8,12,2,5,5,284,1562672985138,N,48129,0
191,1,11,target,target_4,G,/+/The convicted criminal * watched at the railway station * was * following the policeman./,Did the policeman watch the criminal?,Y,,0,17,railway,18,2,7,12,2,4,5,266,1562672985404,N,48129,0
191,1,11,target,target_4,G,/+/The convicted criminal * watched at the railway station * was * following the policeman./,Did the policeman watch the criminal?,Y,,0,17,the,19,2,6,12,2,3,5,299,1562672985703,N,48129,0
191,1,11,target,target_4,G,/+/The convicted criminal * watched at the railway station * was * following the policeman./,Did the policeman watch the criminal?,Y,,0,17,at,20,2,5,12,2,2,5,285,1562672985988,N,48129,0
191,1,11,target,target_4,G,/+/The convicted criminal * watched at the railway station * was * following the policeman./,Did the policeman watch the criminal?,Y,,0,17,watched,21,2,4,12,2,1,5,472,1562672986460,N,48129,0
191,1,11,target,target_4,G,/+/The convicted criminal * watched at the railway station * was * following the policeman./,Did the policeman watch the criminal?,Y,,0,17,criminal,22,2,3,12,1,3,3,561,1562672987021,N,48129,0
191,1,11,target,target_4,G,/+/The convicted criminal * watched at the railway station * was * following the policeman./,Did the policeman watch the criminal?,Y,,0,17,convicted,23,2,2,12,1,2,3,769,1562672987790,N,48129,0
191,1,11,target,target_4,G,/+/The convicted criminal * watched at the railway station * was * following the policeman./,Did the policeman watch the criminal?,Y,,0,17,The,24,2,1,12,1,1,3,410,1562672988200,N,48129,0
191,1,11,target,target_4,G,/+/The convicted criminal * watched at the railway station * was * following the policeman./,Did the policeman watch the criminal?,Y,,0,17,convicted,25,2,2,12,1,2,3,541,1562672988741,N,48129,0
191,1,11,target,target_4,G,/+/The convicted criminal * watched at the railway station * was * following the policeman./,Did the policeman watch the criminal?,Y,,0,17,criminal,26,2,3,12,1,3,3,582,1562672989323,N,48129,0
191,1,11,target,target_4,G,/+/The convicted criminal * watched at the railway station * was * following the policeman./,Did the policeman watch the criminal?,Y,,0,17,watched,27,2,4,12,2,1,5,414,1562672989737,N,48129,0
191,1,11,target,target_4,G,/+/The convicted criminal * watched at the railway station * was * following the policeman./,Did the policeman watch the criminal?,Y,,0,17,at,28,2,5,12,2,2,5,853,1562672990590,N,48129,0
191,1,11,target,target_4,G,/+/The convicted criminal * watched at the railway station * was * following the policeman./,Did the policeman watch the criminal?,Y,,0,17,the,29,2,6,12,2,3,5,3363,1562672993953,N,48129,0
191,1,11,target,target_4,G,/+/The convicted criminal * watched at the railway station * was * following the policeman./,Did the policeman watch the criminal?,Y,,0,17,at,30,2,5,12,2,2,5,393,1562672994346,N,48129,0
191,1,11,target,target_4,G,/+/The convicted criminal * watched at the railway station * was * following the policeman./,Did the policeman watch the criminal?,Y,,0,17,watched,31,2,4,12,2,1,5,338,1562672994684,N,48129,0
191,1,11,target,target_4,G,/+/The convicted criminal * watched at the railway station * was * following the policeman./,Did the policeman watch the criminal?,Y,,0,17,criminal,32,2,3,12,1,3,3,646,1562672995330,N,48129,0
191,1,11,target,target_4,G,/+/The convicted criminal * watched at the railway station * was * following the policeman./,Did the policeman watch the criminal?,Y,,0,17,convicted,33,2,2,12,1,2,3,573,1562672995903,N,48129,0
191,1,11,target,target_4,G,/+/The convicted criminal * watched at the railway station * was * following the policeman./,Did the policeman watch the criminal?,Y,,0,17,criminal,34,2,3,12,1,3,3,365,1562672996268,N,48129,0
191,1,11,target,target_4,G,/+/The convicted criminal * watched at the railway station * was * following the policeman./,Did the policeman watch the criminal?,Y,,0,17,watched,35,2,4,12,2,1,5,305,1562672996573,N,48129,0
191,1,11,target,target_4,G,/+/The convicted criminal * watched at the railway station * was * following the policeman./,Did the policeman watch the criminal?,Y,,0,17,at,36,2,5,12,2,2,5,410,1562672996983,N,48129,0
191,1,11,target,target_4,G,/+/The convicted criminal * watched at the railway station * was * following the policeman./,Did the policeman watch the criminal?,Y,,0,17,the,37,2,6,12,2,3,5,371,1562672997354,N,48129,0
191,1,11,target,target_4,G,/+/The convicted criminal * watched at the railway station * was * following the policeman./,Did the policeman watch the criminal?,Y,,0,17,railway,38,2,7,12,2,4,5,336,1562672997690,N,48129,0
191,1,11,target,target_4,G,/+/The convicted criminal * watched at the railway station * was * following the policeman./,Did the policeman watch the criminal?,Y,,0,17,station,39,2,8,12,2,5,5,724,1562672998414,N,48129,0
191,1,11,target,target_4,G,/+/The convicted criminal * watched at the railway station * was * following the policeman./,Did the policeman watch the criminal?,Y,,0,17,was,40,2,9,12,3,1,1,1795,1562673000209,N,48129,0
191,1,11,target,target_4,G,/+/The convicted criminal * watched at the railway station * was * following the policeman./,Did the policeman watch the criminal?,Y,,0,17,following,41,2,10,12,4,1,3,2785,1562673002994,N,48129,0
191,1,11,target,target_4,G,/+/The convicted criminal * watched at the railway station * was * following the policeman./,Did the policeman watch the criminal?,Y,,0,17,was,42,2,9,12,3,1,1,310,1562673003304,N,48129,0
191,1,11,target,target_4,G,/+/The convicted criminal * watched at the railway station * was * following the policeman./,Did the policeman watch the criminal?,Y,,0,17,station,43,2,8,12,2,5,5,221,1562673003525,N,48129,0
191,1,11,target,target_4,G,/+/The convicted criminal * watched at the railway station * was * following the policeman./,Did the policeman watch the criminal?,Y,,0,17,railway,44,2,7,12,2,4,5,202,1562673003727,N,48129,0
191,1,11,target,target_4,G,/+/The convicted criminal * watched at the railway station * was * following the policeman./,Did the policeman watch the criminal?,Y,,0,17,the,45,2,6,12,2,3,5,217,1562673003944,N,48129,0
191,1,11,target,target_4,G,/+/The convicted criminal * watched at the railway station * was * following the policeman./,Did the policeman watch the criminal?,Y,,0,17,at,46,2,5,12,2,2,5,233,1562673004177,N,48129,0
191,1,11,target,target_4,G,/+/The convicted criminal * watched at the railway station * was * following the policeman./,Did the policeman watch the criminal?,Y,,0,17,watched,47,2,4,12,2,1,5,249,1562673004426,N,48129,0
191,1,11,target,target_4,G,/+/The convicted criminal * watched at the railway station * was * following the policeman./,Did the policeman watch the criminal?,Y,,0,17,criminal,48,2,3,12,1,3,3,438,1562673004864,N,48129,0
191,1,11,target,target_4,G,/+/The convicted criminal * watched at the railway station * was * following the policeman./,Did the policeman watch the criminal?,Y,,0,17,convicted,49,2,2,12,1,2,3,683,1562673005547,N,48129,0
191,1,11,target,target_4,G,/+/The convicted criminal * watched at the railway station * was * following the policeman./,Did the policeman watch the criminal?,Y,,0,17,The,50,2,1,12,1,1,3,638,1562673006185,N,48129,0
191,1,11,target,target_4,G,/+/The convicted criminal * watched at the railway station * was * following the policeman./,Did the policeman watch the criminal?,Y,,0,17,convicted,51,2,2,12,1,2,3,557,1562673006742,N,48129,0
191,1,11,target,target_4,G,/+/The convicted criminal * watched at the railway station * was * following the policeman./,Did the policeman watch the criminal?,Y,,0,17,criminal,52,2,3,12,1,3,3,645,1562673007387,N,48129,0
191,1,11,target,target_4,G,/+/The convicted criminal * watched at the railway station * was * following the policeman./,Did the policeman watch the criminal?,Y,,0,17,watched,53,2,4,12,2,1,5,3053,1562673010440,N,48129,0
191,1,11,target,target_4,G,/+/The convicted criminal * watched at the railway station * was * following the policeman./,Did the policeman watch the criminal?,Y,,0,17,at,54,2,5,12,2,2,5,2028,1562673012468,N,48129,0
191,1,11,target,target_4,G,/+/The convicted criminal * watched at the railway station * was * following the policeman./,Did the policeman watch the criminal?,Y,,0,17,the,55,2,6,12,2,3,5,865,1562673013333,N,48129,0
191,1,11,target,target_4,G,/+/The convicted criminal * watched at the railway station * was * following the policeman./,Did the policeman watch the criminal?,Y,,0,17,railway,56,2,7,12,2,4,5,1554,1562673014887,N,48129,0
191,1,11,target,target_4,G,/+/The convicted criminal * watched at the railway station * was * following the policeman./,Did the policeman watch the criminal?,Y,,0,17,station,57,2,8,12,2,5,5,1337,1562673016224,N,48129,0
191,1,11,target,target_4,G,/+/The convicted criminal * watched at the railway station * was * following the policeman./,Did the policeman watch the criminal?,Y,,0,17,was,58,2,9,12,3,1,1,4313,1562673020537,N,48129,0
191,1,11,target,target_4,G,/+/The convicted criminal * watched at the railway station * was * following the policeman./,Did the policeman watch the criminal?,Y,,0,17,following,59,2,10,12,4,1,3,877,1562673021414,N,48129,0
191,1,11,target,target_4,G,/+/The convicted criminal * watched at the railway station * was * following the policeman./,Did the policeman watch the criminal?,Y,,0,17,the,60,2,11,12,4,2,3,775,1562673022189,N,48129,0
191,1,11,target,target_4,G,/+/The convicted criminal * watched at the railway station * was * following the policeman./,Did the policeman watch the criminal?,Y,,0,17,policeman.,61,2,12,12,4,3,3,3405,1562673025594,N,48129,0
191,1,12,filler,filler_35,,/+/The company building was completed successfully in the third quarter./,Was the company building completed?,Y,,0,18,+,1,1,1,1,1,1,1,1078,1562673075306,Y,5884,1
191,1,12,filler,filler_35,,/+/The company building was completed successfully in the third quarter./,Was the company building completed?,Y,,0,18,The,2,2,1,10,1,1,10,678,1562673075984,Y,5884,1
191,1,12,filler,filler_35,,/+/The company building was completed successfully in the third quarter./,Was the company building completed?,Y,,0,18,company,3,2,2,10,1,2,10,1497,1562673077481,Y,5884,1
191,1,12,filler,filler_35,,/+/The company building was completed successfully in the third quarter./,Was the company building completed?,Y,,0,18,The,4,2,1,10,1,1,10,394,1562673077875,Y,5884,1
191,1,12,filler,filler_35,,/+/The company building was completed successfully in the third quarter./,Was the company building completed?,Y,,0,18,company,5,2,2,10,1,2,10,352,1562673078227,Y,5884,1
191,1,12,filler,filler_35,,/+/The company building was completed successfully in the third quarter./,Was the company building completed?,Y,,0,18,building,6,2,3,10,1,3,10,664,1562673078891,Y,5884,1
191,1,12,filler,filler_35,,/+/The company building was completed successfully in the third quarter./,Was the company building completed?,Y,,0,18,was,7,2,4,10,1,4,10,1667,1562673080558,Y,5884,1
191,1,12,filler,filler_35,,/+/The company building was completed successfully in the third quarter./,Was the company building completed?,Y,,0,18,building,8,2,3,10,1,3,10,392,1562673080950,Y,5884,1
191,1,12,filler,filler_35,,/+/The company building was completed successfully in the third quarter./,Was the company building completed?,Y,,0,18,company,9,2,2,10,1,2,10,1739,1562673082689,Y,5884,1
191,1,12,filler,filler_35,,/+/The company building was completed successfully in the third quarter./,Was the company building completed?,Y,,0,18,The,10,2,1,10,1,1,10,598,1562673083287,Y,5884,1
191,1,12,filler,filler_35,,/+/The company building was completed successfully in the third quarter./,Was the company building completed?,Y,,0,18,company,11,2,2,10,1,2,10,693,1562673083980,Y,5884,1
191,1,12,filler,filler_35,,/+/The company building was completed successfully in the third quarter./,Was the company building completed?,Y,,0,18,building,12,2,3,10,1,3,10,1435,1562673085415,Y,5884,1
191,1,12,filler,filler_35,,/+/The company building was completed successfully in the third quarter./,Was the company building completed?,Y,,0,18,was,13,2,4,10,1,4,10,594,1562673086009,Y,5884,1
191,1,12,filler,filler_35,,/+/The company building was completed successfully in the third quarter./,Was the company building completed?,Y,,0,18,completed,14,2,5,10,1,5,10,1348,1562673087357,Y,5884,1
191,1,12,filler,filler_35,,/+/The company building was completed successfully in the third quarter./,Was the company building completed?,Y,,0,18,successfully,15,2,6,10,1,6,10,1063,1562673088420,Y,5884,1
191,1,12,filler,filler_35,,/+/The company building was completed successfully in the third quarter./,Was the company building completed?,Y,,0,18,in,16,2,7,10,1,7,10,595,1562673089015,Y,5884,1
191,1,12,filler,filler_35,,/+/The company building was completed successfully in the third quarter./,Was the company building completed?,Y,,0,18,the,17,2,8,10,1,8,10,616,1562673089631,Y,5884,1
191,1,12,filler,filler_35,,/+/The company building was completed successfully in the third quarter./,Was the company building completed?,Y,,0,18,third,18,2,9,10,1,9,10,759,1562673090390,Y,5884,1
191,1,12,filler,filler_35,,/+/The company building was completed successfully in the third quarter./,Was the company building completed?,Y,,0,18,quarter.,19,2,10,10,1,10,10,1078,1562673091468,Y,5884,1
191,1,12,filler,filler_35,,/+/The company building was completed successfully in the third quarter./,Was the company building completed?,Y,,0,18,third,20,2,9,10,1,9,10,367,1562673091835,Y,5884,1
191,1,12,filler,filler_35,,/+/The company building was completed successfully in the third quarter./,Was the company building completed?,Y,,0,18,the,21,2,8,10,1,8,10,290,1562673092125,Y,5884,1
191,1,12,filler,filler_35,,/+/The company building was completed successfully in the third quarter./,Was the company building completed?,Y,,0,18,in,22,2,7,10,1,7,10,269,1562673092394,Y,5884,1
191,1,12,filler,filler_35,,/+/The company building was completed successfully in the third quarter./,Was the company building completed?,Y,,0,18,successfully,23,2,6,10,1,6,10,267,1562673092661,Y,5884,1
191,1,12,filler,filler_35,,/+/The company building was completed successfully in the third quarter./,Was the company building completed?,Y,,0,18,completed,24,2,5,10,1,5,10,376,1562673093037,Y,5884,1
191,1,12,filler,filler_35,,/+/The company building was completed successfully in the third quarter./,Was the company building completed?,Y,,0,18,was,25,2,4,10,1,4,10,305,1562673093342,Y,5884,1
191,1,12,filler,filler_35,,/+/The company building was completed successfully in the third quarter./,Was the company building completed?,Y,,0,18,building,26,2,3,10,1,3,10,444,1562673093786,Y,5884,1
191,1,12,filler,filler_35,,/+/The company building was completed successfully in the third quarter./,Was the company building completed?,Y,,0,18,company,27,2,2,10,1,2,10,574,1562673094360,Y,5884,1
191,1,12,filler,filler_35,,/+/The company building was completed successfully in the third quarter./,Was the company building completed?,Y,,0,18,The,28,2,1,10,1,1,10,397,1562673094757,Y,5884,1
191,1,12,filler,filler_35,,/+/The company building was completed successfully in the third quarter./,Was the company building completed?,Y,,0,18,company,29,2,2,10,1,2,10,368,1562673095125,Y,5884,1
191,1,12,filler,filler_35,,/+/The company building was completed successfully in the third quarter./,Was the company building completed?,Y,,0,18,building,30,2,3,10,1,3,10,618,1562673095743,Y,5884,1
191,1,12,filler,filler_35,,/+/The company building was completed successfully in the third quarter./,Was the company building completed?,Y,,0,18,was,31,2,4,10,1,4,10,587,1562673096330,Y,5884,1
191,1,12,filler,filler_35,,/+/The company building was completed successfully in the third quarter./,Was the company building completed?,Y,,0,18,completed,32,2,5,10,1,5,10,318,1562673096648,Y,5884,1
191,1,12,filler,filler_35,,/+/The company building was completed successfully in the third quarter./,Was the company building completed?,Y,,0,18,successfully,33,2,6,10,1,6,10,677,1562673097325,Y,5884,1
191,1,12,filler,filler_35,,/+/The company building was completed successfully in the third quarter./,Was the company building completed?,Y,,0,18,in,34,2,7,10,1,7,10,532,1562673097857,Y,5884,1
191,1,12,filler,filler_35,,/+/The company building was completed successfully in the third quarter./,Was the company building completed?,Y,,0,18,the,35,2,8,10,1,8,10,327,1562673098184,Y,5884,1
191,1,12,filler,filler_35,,/+/The company building was completed successfully in the third quarter./,Was the company building completed?,Y,,0,18,third,36,2,9,10,1,9,10,428,1562673098612,Y,5884,1
191,1,12,filler,filler_35,,/+/The company building was completed successfully in the third quarter./,Was the company building completed?,Y,,0,18,quarter.,37,2,10,10,1,10,10,651,1562673099263,Y,5884,1
191,1,13,target,target_8,C,/+/The older kids * who were * showed all the dances * felt * amazed at the party./,Did the older kids show the dances?,N,,0,19,+,1,1,1,1,1,1,1,513,1562673106202,N,4293,1
191,1,13,target,target_8,C,/+/The older kids * who were * showed all the dances * felt * amazed at the party./,Did the older kids show the dances?,N,,0,19,The,2,2,1,14,1,1,3,456,1562673106658,N,4293,1
191,1,13,target,target_8,C,/+/The older kids * who were * showed all the dances * felt * amazed at the party./,Did the older kids show the dances?,N,,0,19,older,3,2,2,14,1,2,3,967,1562673107625,N,4293,1
191,1,13,target,target_8,C,/+/The older kids * who were * showed all the dances * felt * amazed at the party./,Did the older kids show the dances?,N,,0,19,The,4,2,1,14,1,1,3,312,1562673107937,N,4293,1
191,1,13,target,target_8,C,/+/The older kids * who were * showed all the dances * felt * amazed at the party./,Did the older kids show the dances?,N,,0,19,older,5,2,2,14,1,2,3,459,1562673108396,N,4293,1
191,1,13,target,target_8,C,/+/The older kids * who were * showed all the dances * felt * amazed at the party./,Did the older kids show the dances?,N,,0,19,kids,6,2,3,14,1,3,3,574,1562673108970,N,4293,1
191,1,13,target,target_8,C,/+/The older kids * who were * showed all the dances * felt * amazed at the party./,Did the older kids show the dances?,N,,0,19,who,7,2,4,14,2,1,2,959,1562673109929,N,4293,1
191,1,13,target,target_8,C,/+/The older kids * who were * showed all the dances * felt * amazed at the party./,Did the older kids show the dances?,N,,0,19,were,8,2,5,14,2,2,2,515,1562673110444,N,4293,1
191,1,13,target,target_8,C,/+/The older kids * who were * showed all the dances * felt * amazed at the party./,Did the older kids show the dances?,N,,0,19,showed,9,2,6,14,3,1,4,1080,1562673111524,N,4293,1
191,1,13,target,target_8,C,/+/The older kids * who were * showed all the dances * felt * amazed at the party./,Did the older kids show the dances?,N,,0,19,all,10,2,7,14,3,2,4,945,1562673112469,N,4293,1
191,1,13,target,target_8,C,/+/The older kids * who were * showed all the dances * felt * amazed at the party./,Did the older kids show the dances?,N,,0,19,the,11,2,8,14,3,3,4,545,1562673113014,N,4293,1
191,1,13,target,target_8,C,/+/The older kids * who were * showed all the dances * felt * amazed at the party./,Did the older kids show the dances?,N,,0,19,dances,12,2,9,14,3,4,4,1033,1562673114047,N,4293,1
191,1,13,target,target_8,C,/+/The older kids * who were * showed all the dances * felt * amazed at the party./,Did the older kids show the dances?,N,,0,19,felt,13,2,10,14,4,1,1,1006,1562673115053,N,4293,1
191,1,13,target,target_8,C,/+/The older kids * who were * showed all the dances * felt * amazed at the party./,Did the older kids show the dances?,N,,0,19,amazed,14,2,11,14,5,1,4,1298,1562673116351,N,4293,1
191,1,13,target,target_8,C,/+/The older kids * who were * showed all the dances * felt * amazed at the party./,Did the older kids show the dances?,N,,0,19,at,15,2,12,14,5,2,4,446,1562673116797,N,4293,1
191,1,13,target,target_8,C,/+/The older kids * who were * showed all the dances * felt * amazed at the party./,Did the older kids show the dances?,N,,0,19,the,16,2,13,14,5,3,4,542,1562673117339,N,4293,1
191,1,13,target,target_8,C,/+/The older kids * who were * showed all the dances * felt * amazed at the party./,Did the older kids show the dances?,N,,0,19,party.,17,2,14,14,5,4,4,1174,1562673118513,N,4293,1
191,1,13,target,target_8,C,/+/The older kids * who were * showed all the dances * felt * amazed at the party./,Did the older kids show the dances?,N,,0,19,the,18,2,13,14,5,3,4,235,1562673118748,N,4293,1
191,1,13,target,target_8,C,/+/The older kids * who were * showed all the dances * felt * amazed at the party./,Did the older kids show the dances?,N,,0,19,at,19,2,12,14,5,2,4,236,1562673118984,N,4293,1
191,1,13,target,target_8,C,/+/The older kids * who were * showed all the dances * felt * amazed at the party./,Did the older kids show the dances?,N,,0,19,amazed,20,2,11,14,5,1,4,262,1562673119246,N,4293,1
191,1,13,target,target_8,C,/+/The older kids * who were * showed all the dances * felt * amazed at the party./,Did the older kids show the dances?,N,,0,19,felt,21,2,10,14,4,1,1,205,1562673119451,N,4293,1
191,1,13,target,target_8,C,/+/The older kids * who were * showed all the dances * felt * amazed at the party./,Did the older kids show the dances?,N,,0,19,dances,22,2,9,14,3,4,4,247,1562673119698,N,4293,1
191,1,13,target,target_8,C,/+/The older kids * who were * showed all the dances * felt * amazed at the party./,Did the older kids show the dances?,N,,0,19,the,23,2,8,14,3,3,4,205,1562673119903,N,4293,1
191,1,13,target,target_8,C,/+/The older kids * who were * showed all the dances * felt * amazed at the party./,Did the older kids show the dances?,N,,0,19,all,24,2,7,14,3,2,4,277,1562673120180,N,4293,1
191,1,13,target,target_8,C,/+/The older kids * who were * showed all the dances * felt * amazed at the party./,Did the older kids show the dances?,N,,0,19,showed,25,2,6,14,3,1,4,283,1562673120463,N,4293,1
191,1,13,target,target_8,C,/+/The older kids * who were * showed all the dances * felt * amazed at the party./,Did the older kids show the dances?,N,,0,19,were,26,2,5,14,2,2,2,378,1562673120841,N,4293,1
191,1,13,target,target_8,C,/+/The older kids * who were * showed all the dances * felt * amazed at the party./,Did the older kids show the dances?,N,,0,19,who,27,2,4,14,2,1,2,306,1562673121147,N,4293,1
191,1,13,target,target_8,C,/+/The older kids * who were * showed all the dances * felt * amazed at the party./,Did the older kids show the dances?,N,,0,19,kids,28,2,3,14,1,3,3,316,1562673121463,N,4293,1
191,1,13,target,target_8,C,/+/The older kids * who were * showed all the dances * felt * amazed at the party./,Did the older kids show the dances?,N,,0,19,older,29,2,2,14,1,2,3,335,1562673121798,N,4293,1
