dat_Subject,list,display_order,type,id,con,fab_stimulus,fab_question,fab_key,fab_instruction,fab_feedback,dat_Trial,dat_Window,dat_WindowSequence,dat_LoopNumber,dat_LoopPosition,dat_LoopSum,dat_AreaNumber,dat_AreaPosition,dat_AreaSum,dat_ReactionTime,dat_Time,dat_Ans,dat_AnsReactionTime,dat_Accuracy
227,1,p1,practice,practice_1,,/+/The patient listened to the doctor's advice after he felt hopeless./,Did the patient follow the doctor?,Y,ins.jpg,1,1,+,1,1,1,1,1,1,1,30712,1563018046022,Y,16726,1
227,1,p1,practice,practice_1,,/+/The patient listened to the doctor's advice after he felt hopeless./,Did the patient follow the doctor?,Y,ins.jpg,1,1,The,2,2,1,11,1,1,11,1799,1563018047821,Y,16726,1
227,1,p1,practice,practice_1,,/+/The patient listened to the doctor's advice after he felt hopeless./,Did the patient follow the doctor?,Y,ins.jpg,1,1,patient,3,2,2,11,1,2,11,2109,1563018049930,Y,16726,1
227,1,p1,practice,practice_1,,/+/The patient listened to the doctor's advice after he felt hopeless./,Did the patient follow the doctor?,Y,ins.jpg,1,1,listened,4,2,3,11,1,3,11,3795,1563018053725,Y,16726,1
227,1,p1,practice,practice_1,,/+/The patient listened to the doctor's advice after he felt hopeless./,Did the patient follow the doctor?,Y,ins.jpg,1,1,to,5,2,4,11,1,4,11,1560,1563018055285,Y,16726,1
227,1,p1,practice,practice_1,,/+/The patient listened to the doctor's advice after he felt hopeless./,Did the patient follow the doctor?,Y,ins.jpg,1,1,the,6,2,5,11,1,5,11,664,1563018055949,Y,16726,1
227,1,p1,practice,practice_1,,/+/The patient listened to the doctor's advice after he felt hopeless./,Did the patient follow the doctor?,Y,ins.jpg,1,1,doctor's,7,2,6,11,1,6,11,1042,1563018056991,Y,16726,1
227,1,p1,practice,practice_1,,/+/The patient listened to the doctor's advice after he felt hopeless./,Did the patient follow the doctor?,Y,ins.jpg,1,1,advice,8,2,7,11,1,7,11,1286,1563018058277,Y,16726,1
227,1,p1,practice,practice_1,,/+/The patient listened to the doctor's advice after he felt hopeless./,Did the patient follow the doctor?,Y,ins.jpg,1,1,after,9,2,8,11,1,8,11,5437,1563018063714,Y,16726,1
227,1,p1,practice,practice_1,,/+/The patient listened to the doctor's advice after he felt hopeless./,Did the patient follow the doctor?,Y,ins.jpg,1,1,he,10,2,9,11,1,9,11,2351,1563018066065,Y,16726,1
227,1,p1,practice,practice_1,,/+/The patient listened to the doctor's advice after he felt hopeless./,Did the patient follow the doctor?,Y,ins.jpg,1,1,felt,11,2,10,11,1,10,11,1762,1563018067827,Y,16726,1
227,1,p1,practice,practice_1,,/+/The patient listened to the doctor's advice after he felt hopeless./,Did the patient follow the doctor?,Y,ins.jpg,1,1,hopeless.,12,2,11,11,1,11,11,3221,1563018071048,Y,16726,1
227,1,p1,practice,practice_1,,/+/The patient listened to the doctor's advice after he felt hopeless./,Did the patient follow the doctor?,Y,ins.jpg,1,1,felt,13,2,10,11,1,10,11,1554,1563018072602,Y,16726,1
227,1,p1,practice,practice_1,,/+/The patient listened to the doctor's advice after he felt hopeless./,Did the patient follow the doctor?,Y,ins.jpg,1,1,he,14,2,9,11,1,9,11,508,1563018073110,Y,16726,1
227,1,p1,practice,practice_1,,/+/The patient listened to the doctor's advice after he felt hopeless./,Did the patient follow the doctor?,Y,ins.jpg,1,1,after,15,2,8,11,1,8,11,1250,1563018074360,Y,16726,1
227,1,p1,practice,practice_1,,/+/The patient listened to the doctor's advice after he felt hopeless./,Did the patient follow the doctor?,Y,ins.jpg,1,1,he,16,2,9,11,1,9,11,864,1563018075224,Y,16726,1
227,1,p1,practice,practice_1,,/+/The patient listened to the doctor's advice after he felt hopeless./,Did the patient follow the doctor?,Y,ins.jpg,1,1,felt,17,2,10,11,1,10,11,2473,1563018077697,Y,16726,1
227,1,p1,practice,practice_1,,/+/The patient listened to the doctor's advice after he felt hopeless./,Did the patient follow the doctor?,Y,ins.jpg,1,1,hopeless.,18,2,11,11,1,11,11,4111,1563018081808,Y,16726,1
227,1,p2,practice,practice_2,,/+/The visitors knew little about how the painting was created./,Did the visitors know how the painting was created?,N,,1,2,+,1,1,1,1,1,1,1,6593,1563018105646,N,2780,1
227,1,p2,practice,practice_2,,/+/The visitors knew little about how the painting was created./,Did the visitors know how the painting was created?,N,,1,2,The,2,2,1,10,1,1,10,1103,1563018106749,N,2780,1
227,1,p2,practice,practice_2,,/+/The visitors knew little about how the painting was created./,Did the visitors know how the painting was created?,N,,1,2,visitors,3,2,2,10,1,2,10,3334,1563018110083,N,2780,1
227,1,p2,practice,practice_2,,/+/The visitors knew little about how the painting was created./,Did the visitors know how the painting was created?,N,,1,2,knew,4,2,3,10,1,3,10,2624,1563018112707,N,2780,1
227,1,p2,practice,practice_2,,/+/The visitors knew little about how the painting was created./,Did the visitors know how the painting was created?,N,,1,2,little,5,2,4,10,1,4,10,2338,1563018115045,N,2780,1
227,1,p2,practice,practice_2,,/+/The visitors knew little about how the painting was created./,Did the visitors know how the painting was created?,N,,1,2,about,6,2,5,10,1,5,10,639,1563018115684,N,2780,1
227,1,p2,practice,practice_2,,/+/The visitors knew little about how the painting was created./,Did the visitors know how the painting was created?,N,,1,2,how,7,2,6,10,1,6,10,820,1563018116504,N,2780,1
227,1,p2,practice,practice_2,,/+/The visitors knew little about how the painting was created./,Did the visitors know how the painting was created?,N,,1,2,the,8,2,7,10,1,7,10,1162,1563018117666,N,2780,1
227,1,p2,practice,practice_2,,/+/The visitors knew little about how the painting was created./,Did the visitors know how the painting was created?,N,,1,2,painting,9,2,8,10,1,8,10,1324,1563018118990,N,2780,1
227,1,p2,practice,practice_2,,/+/The visitors knew little about how the painting was created./,Did the visitors know how the painting was created?,N,,1,2,was,10,2,9,10,1,9,10,900,1563018119890,N,2780,1
227,1,p2,practice,practice_2,,/+/The visitors knew little about how the painting was created./,Did the visitors know how the painting was created?,N,,1,2,created.,11,2,10,10,1,10,10,1150,1563018121040,N,2780,1
227,1,p3,practice,practice_3,,/+/The old lady lived further away from the city center./,Did the old lady live in the city center?,N,,1,3,+,1,1,1,1,1,1,1,1462,1563018125810,N,5010,1
227,1,p3,practice,practice_3,,/+/The old lady lived further away from the city center./,Did the old lady live in the city center?,N,,1,3,The,2,2,1,10,1,1,10,909,1563018126719,N,5010,1
227,1,p3,practice,practice_3,,/+/The old lady lived further away from the city center./,Did the old lady live in the city center?,N,,1,3,old,3,2,2,10,1,2,10,1869,1563018128588,N,5010,1
227,1,p3,practice,practice_3,,/+/The old lady lived further away from the city center./,Did the old lady live in the city center?,N,,1,3,lady,4,2,3,10,1,3,10,903,1563018129491,N,5010,1
227,1,p3,practice,practice_3,,/+/The old lady lived further away from the city center./,Did the old lady live in the city center?,N,,1,3,lived,5,2,4,10,1,4,10,1338,1563018130829,N,5010,1
227,1,p3,practice,practice_3,,/+/The old lady lived further away from the city center./,Did the old lady live in the city center?,N,,1,3,further,6,2,5,10,1,5,10,807,1563018131636,N,5010,1
227,1,p3,practice,practice_3,,/+/The old lady lived further away from the city center./,Did the old lady live in the city center?,N,,1,3,away,7,2,6,10,1,6,10,2315,1563018133951,N,5010,1
227,1,p3,practice,practice_3,,/+/The old lady lived further away from the city center./,Did the old lady live in the city center?,N,,1,3,from,8,2,7,10,1,7,10,605,1563018134556,N,5010,1
227,1,p3,practice,practice_3,,/+/The old lady lived further away from the city center./,Did the old lady live in the city center?,N,,1,3,the,9,2,8,10,1,8,10,461,1563018135017,N,5010,1
227,1,p3,practice,practice_3,,/+/The old lady lived further away from the city center./,Did the old lady live in the city center?,N,,1,3,city,10,2,9,10,1,9,10,511,1563018135528,N,5010,1
227,1,p3,practice,practice_3,,/+/The old lady lived further away from the city center./,Did the old lady live in the city center?,N,,1,3,center.,11,2,10,10,1,10,10,722,1563018136250,N,5010,1
227,1,p4,practice,practice_4,,/+/The maid looked at the hostess with a nervous smile./,Did the maid feel nervous? ,Y,,1,4,+,1,1,1,1,1,1,1,1452,1563018143228,Y,2748,1
227,1,p4,practice,practice_4,,/+/The maid looked at the hostess with a nervous smile./,Did the maid feel nervous? ,Y,,1,4,The,2,2,1,10,1,1,10,1421,1563018144649,Y,2748,1
227,1,p4,practice,practice_4,,/+/The maid looked at the hostess with a nervous smile./,Did the maid feel nervous? ,Y,,1,4,maid,3,2,2,10,1,2,10,2466,1563018147115,Y,2748,1
227,1,p4,practice,practice_4,,/+/The maid looked at the hostess with a nervous smile./,Did the maid feel nervous? ,Y,,1,4,looked,4,2,3,10,1,3,10,1130,1563018148245,Y,2748,1
227,1,p4,practice,practice_4,,/+/The maid looked at the hostess with a nervous smile./,Did the maid feel nervous? ,Y,,1,4,at,5,2,4,10,1,4,10,855,1563018149100,Y,2748,1
227,1,p4,practice,practice_4,,/+/The maid looked at the hostess with a nervous smile./,Did the maid feel nervous? ,Y,,1,4,the,6,2,5,10,1,5,10,1072,1563018150172,Y,2748,1
227,1,p4,practice,practice_4,,/+/The maid looked at the hostess with a nervous smile./,Did the maid feel nervous? ,Y,,1,4,hostess,7,2,6,10,1,6,10,1659,1563018151831,Y,2748,1
227,1,p4,practice,practice_4,,/+/The maid looked at the hostess with a nervous smile./,Did the maid feel nervous? ,Y,,1,4,with,8,2,7,10,1,7,10,701,1563018152532,Y,2748,1
227,1,p4,practice,practice_4,,/+/The maid looked at the hostess with a nervous smile./,Did the maid feel nervous? ,Y,,1,4,a,9,2,8,10,1,8,10,641,1563018153173,Y,2748,1
227,1,p4,practice,practice_4,,/+/The maid looked at the hostess with a nervous smile./,Did the maid feel nervous? ,Y,,1,4,nervous,10,2,9,10,1,9,10,1024,1563018154197,Y,2748,1
227,1,p4,practice,practice_4,,/+/The maid looked at the hostess with a nervous smile./,Did the maid feel nervous? ,Y,,1,4,smile.,11,2,10,10,1,10,10,1941,1563018156138,Y,2748,1
227,1,p5,practice,practice_5,,/+/The young lady * sent a red rose * became * really embarrassed./,Did the lady send a red rose?,N,,1,5,+,1,1,1,1,1,1,1,1118,1563018160519,Y,4028,0
227,1,p5,practice,practice_5,,/+/The young lady * sent a red rose * became * really embarrassed./,Did the lady send a red rose?,N,,1,5,The,2,2,1,10,1,1,3,636,1563018161155,Y,4028,0
227,1,p5,practice,practice_5,,/+/The young lady * sent a red rose * became * really embarrassed./,Did the lady send a red rose?,N,,1,5,young,3,2,2,10,1,2,3,712,1563018161867,Y,4028,0
227,1,p5,practice,practice_5,,/+/The young lady * sent a red rose * became * really embarrassed./,Did the lady send a red rose?,N,,1,5,lady,4,2,3,10,1,3,3,1139,1563018163006,Y,4028,0
227,1,p5,practice,practice_5,,/+/The young lady * sent a red rose * became * really embarrassed./,Did the lady send a red rose?,N,,1,5,sent,5,2,4,10,2,1,4,1448,1563018164454,Y,4028,0
227,1,p5,practice,practice_5,,/+/The young lady * sent a red rose * became * really embarrassed./,Did the lady send a red rose?,N,,1,5,a,6,2,5,10,2,2,4,1093,1563018165547,Y,4028,0
227,1,p5,practice,practice_5,,/+/The young lady * sent a red rose * became * really embarrassed./,Did the lady send a red rose?,N,,1,5,red,7,2,6,10,2,3,4,2709,1563018168256,Y,4028,0
227,1,p5,practice,practice_5,,/+/The young lady * sent a red rose * became * really embarrassed./,Did the lady send a red rose?,N,,1,5,rose,8,2,7,10,2,4,4,756,1563018169012,Y,4028,0
227,1,p5,practice,practice_5,,/+/The young lady * sent a red rose * became * really embarrassed./,Did the lady send a red rose?,N,,1,5,became,9,2,8,10,3,1,1,674,1563018169686,Y,4028,0
227,1,p5,practice,practice_5,,/+/The young lady * sent a red rose * became * really embarrassed./,Did the lady send a red rose?,N,,1,5,really,10,2,9,10,4,1,2,746,1563018170432,Y,4028,0
227,1,p5,practice,practice_5,,/+/The young lady * sent a red rose * became * really embarrassed./,Did the lady send a red rose?,N,,1,5,embarrassed.,11,2,10,10,4,2,2,1530,1563018171962,Y,4028,0
227,1,p6,practice,practice_6,,/+/The busy workers * who were * offered a delicious pizza * felt * not so hungry./,Did someone offer the workers a pizza?,Y,,1,6,+,1,1,1,1,1,1,1,1001,1563018286669,Y,6743,1
227,1,p6,practice,practice_6,,/+/The busy workers * who were * offered a delicious pizza * felt * not so hungry./,Did someone offer the workers a pizza?,Y,,1,6,The,2,2,1,13,1,1,3,927,1563018287596,Y,6743,1
227,1,p6,practice,practice_6,,/+/The busy workers * who were * offered a delicious pizza * felt * not so hungry./,Did someone offer the workers a pizza?,Y,,1,6,busy,3,2,2,13,1,2,3,1560,1563018289156,Y,6743,1
227,1,p6,practice,practice_6,,/+/The busy workers * who were * offered a delicious pizza * felt * not so hungry./,Did someone offer the workers a pizza?,Y,,1,6,workers,4,2,3,13,1,3,3,2253,1563018291409,Y,6743,1
227,1,p6,practice,practice_6,,/+/The busy workers * who were * offered a delicious pizza * felt * not so hungry./,Did someone offer the workers a pizza?,Y,,1,6,who,5,2,4,13,2,1,2,914,1563018292323,Y,6743,1
227,1,p6,practice,practice_6,,/+/The busy workers * who were * offered a delicious pizza * felt * not so hungry./,Did someone offer the workers a pizza?,Y,,1,6,were,6,2,5,13,2,2,2,2399,1563018294722,Y,6743,1
227,1,p6,practice,practice_6,,/+/The busy workers * who were * offered a delicious pizza * felt * not so hungry./,Did someone offer the workers a pizza?,Y,,1,6,offered,7,2,6,13,3,1,4,1906,1563018296628,Y,6743,1
227,1,p6,practice,practice_6,,/+/The busy workers * who were * offered a delicious pizza * felt * not so hungry./,Did someone offer the workers a pizza?,Y,,1,6,a,8,2,7,13,3,2,4,624,1563018297252,Y,6743,1
227,1,p6,practice,practice_6,,/+/The busy workers * who were * offered a delicious pizza * felt * not so hungry./,Did someone offer the workers a pizza?,Y,,1,6,delicious,9,2,8,13,3,3,4,1570,1563018298822,Y,6743,1
227,1,p6,practice,practice_6,,/+/The busy workers * who were * offered a delicious pizza * felt * not so hungry./,Did someone offer the workers a pizza?,Y,,1,6,pizza,10,2,9,13,3,4,4,1602,1563018300424,Y,6743,1
227,1,p6,practice,practice_6,,/+/The busy workers * who were * offered a delicious pizza * felt * not so hungry./,Did someone offer the workers a pizza?,Y,,1,6,felt,11,2,10,13,4,1,1,5034,1563018305458,Y,6743,1
227,1,p6,practice,practice_6,,/+/The busy workers * who were * offered a delicious pizza * felt * not so hungry./,Did someone offer the workers a pizza?,Y,,1,6,not,12,2,11,13,5,1,3,642,1563018306100,Y,6743,1
227,1,p6,practice,practice_6,,/+/The busy workers * who were * offered a delicious pizza * felt * not so hungry./,Did someone offer the workers a pizza?,Y,,1,6,so,13,2,12,13,5,2,3,948,1563018307048,Y,6743,1
227,1,p6,practice,practice_6,,/+/The busy workers * who were * offered a delicious pizza * felt * not so hungry./,Did someone offer the workers a pizza?,Y,,1,6,hungry.,14,2,13,13,5,3,3,2074,1563018309122,Y,6743,1
227,1,1,filler,filler_6,,/+/The girl sang very well through learning experiences from her tutor./,Did the girl's tutor do a lot of help? ,Y,练习结束，现在开始正式实验。,0,7,+,1,1,1,1,1,1,1,7296,1563018367252,Y,2810,1
227,1,1,filler,filler_6,,/+/The girl sang very well through learning experiences from her tutor./,Did the girl's tutor do a lot of help? ,Y,练习结束，现在开始正式实验。,0,7,The,2,2,1,11,1,1,11,3082,1563018370334,Y,2810,1
227,1,1,filler,filler_6,,/+/The girl sang very well through learning experiences from her tutor./,Did the girl's tutor do a lot of help? ,Y,练习结束，现在开始正式实验。,0,7,girl,3,2,2,11,1,2,11,20034,1563018390368,Y,2810,1
227,1,1,filler,filler_6,,/+/The girl sang very well through learning experiences from her tutor./,Did the girl's tutor do a lot of help? ,Y,练习结束，现在开始正式实验。,0,7,sang,4,2,3,11,1,3,11,1098,1563018391466,Y,2810,1
227,1,1,filler,filler_6,,/+/The girl sang very well through learning experiences from her tutor./,Did the girl's tutor do a lot of help? ,Y,练习结束，现在开始正式实验。,0,7,very,5,2,4,11,1,4,11,931,1563018392397,Y,2810,1
227,1,1,filler,filler_6,,/+/The girl sang very well through learning experiences from her tutor./,Did the girl's tutor do a lot of help? ,Y,练习结束，现在开始正式实验。,0,7,well,6,2,5,11,1,5,11,640,1563018393037,Y,2810,1
227,1,1,filler,filler_6,,/+/The girl sang very well through learning experiences from her tutor./,Did the girl's tutor do a lot of help? ,Y,练习结束，现在开始正式实验。,0,7,through,7,2,6,11,1,6,11,836,1563018393873,Y,2810,1
227,1,1,filler,filler_6,,/+/The girl sang very well through learning experiences from her tutor./,Did the girl's tutor do a lot of help? ,Y,练习结束，现在开始正式实验。,0,7,learning,8,2,7,11,1,7,11,3706,1563018397579,Y,2810,1
227,1,1,filler,filler_6,,/+/The girl sang very well through learning experiences from her tutor./,Did the girl's tutor do a lot of help? ,Y,练习结束，现在开始正式实验。,0,7,experiences,9,2,8,11,1,8,11,1257,1563018398836,Y,2810,1
227,1,1,filler,filler_6,,/+/The girl sang very well through learning experiences from her tutor./,Did the girl's tutor do a lot of help? ,Y,练习结束，现在开始正式实验。,0,7,from,10,2,9,11,1,9,11,724,1563018399560,Y,2810,1
227,1,1,filler,filler_6,,/+/The girl sang very well through learning experiences from her tutor./,Did the girl's tutor do a lot of help? ,Y,练习结束，现在开始正式实验。,0,7,her,11,2,10,11,1,10,11,484,1563018400044,Y,2810,1
227,1,1,filler,filler_6,,/+/The girl sang very well through learning experiences from her tutor./,Did the girl's tutor do a lot of help? ,Y,练习结束，现在开始正式实验。,0,7,tutor.,12,2,11,11,1,11,11,936,1563018400980,Y,2810,1
227,1,2,filler,filler_7,,/+/Some important papers which lay in the office were stolen last night./,Were the papers still safe?,N,,0,8,+,1,1,1,1,1,1,1,856,1563018405161,N,3092,1
227,1,2,filler,filler_7,,/+/Some important papers which lay in the office were stolen last night./,Were the papers still safe?,N,,0,8,Some,2,2,1,12,1,1,12,1850,1563018407011,N,3092,1
227,1,2,filler,filler_7,,/+/Some important papers which lay in the office were stolen last night./,Were the papers still safe?,N,,0,8,important,3,2,2,12,1,2,12,887,1563018407898,N,3092,1
227,1,2,filler,filler_7,,/+/Some important papers which lay in the office were stolen last night./,Were the papers still safe?,N,,0,8,papers,4,2,3,12,1,3,12,604,1563018408502,N,3092,1
227,1,2,filler,filler_7,,/+/Some important papers which lay in the office were stolen last night./,Were the papers still safe?,N,,0,8,which,5,2,4,12,1,4,12,803,1563018409305,N,3092,1
227,1,2,filler,filler_7,,/+/Some important papers which lay in the office were stolen last night./,Were the papers still safe?,N,,0,8,lay,6,2,5,12,1,5,12,1333,1563018410638,N,3092,1
227,1,2,filler,filler_7,,/+/Some important papers which lay in the office were stolen last night./,Were the papers still safe?,N,,0,8,in,7,2,6,12,1,6,12,1039,1563018411677,N,3092,1
227,1,2,filler,filler_7,,/+/Some important papers which lay in the office were stolen last night./,Were the papers still safe?,N,,0,8,the,8,2,7,12,1,7,12,535,1563018412212,N,3092,1
227,1,2,filler,filler_7,,/+/Some important papers which lay in the office were stolen last night./,Were the papers still safe?,N,,0,8,office,9,2,8,12,1,8,12,972,1563018413184,N,3092,1
227,1,2,filler,filler_7,,/+/Some important papers which lay in the office were stolen last night./,Were the papers still safe?,N,,0,8,were,10,2,9,12,1,9,12,1015,1563018414199,N,3092,1
227,1,2,filler,filler_7,,/+/Some important papers which lay in the office were stolen last night./,Were the papers still safe?,N,,0,8,stolen,11,2,10,12,1,10,12,956,1563018415155,N,3092,1
227,1,2,filler,filler_7,,/+/Some important papers which lay in the office were stolen last night./,Were the papers still safe?,N,,0,8,last,12,2,11,12,1,11,12,657,1563018415812,N,3092,1
227,1,2,filler,filler_7,,/+/Some important papers which lay in the office were stolen last night./,Were the papers still safe?,N,,0,8,night.,13,2,12,12,1,12,12,1027,1563018416839,N,3092,1
227,1,3,target,target_1,G,/+/The cotton farmers * warned about the bad floods * had * no other crops./,Did the farmers warn about the floods?,N,,0,9,+,1,1,1,1,1,1,1,13791,1563018434240,Y,3605,0
227,1,3,target,target_1,G,/+/The cotton farmers * warned about the bad floods * had * no other crops./,Did the farmers warn about the floods?,N,,0,9,The,2,2,1,12,1,1,3,659,1563018434899,Y,3605,0
227,1,3,target,target_1,G,/+/The cotton farmers * warned about the bad floods * had * no other crops./,Did the farmers warn about the floods?,N,,0,9,cotton,3,2,2,12,1,2,3,666,1563018435565,Y,3605,0
227,1,3,target,target_1,G,/+/The cotton farmers * warned about the bad floods * had * no other crops./,Did the farmers warn about the floods?,N,,0,9,farmers,4,2,3,12,1,3,3,3429,1563018438994,Y,3605,0
227,1,3,target,target_1,G,/+/The cotton farmers * warned about the bad floods * had * no other crops./,Did the farmers warn about the floods?,N,,0,9,warned,5,2,4,12,2,1,5,850,1563018439844,Y,3605,0
227,1,3,target,target_1,G,/+/The cotton farmers * warned about the bad floods * had * no other crops./,Did the farmers warn about the floods?,N,,0,9,about,6,2,5,12,2,2,5,929,1563018440773,Y,3605,0
227,1,3,target,target_1,G,/+/The cotton farmers * warned about the bad floods * had * no other crops./,Did the farmers warn about the floods?,N,,0,9,the,7,2,6,12,2,3,5,670,1563018441443,Y,3605,0
227,1,3,target,target_1,G,/+/The cotton farmers * warned about the bad floods * had * no other crops./,Did the farmers warn about the floods?,N,,0,9,bad,8,2,7,12,2,4,5,1213,1563018442656,Y,3605,0
227,1,3,target,target_1,G,/+/The cotton farmers * warned about the bad floods * had * no other crops./,Did the farmers warn about the floods?,N,,0,9,floods,9,2,8,12,2,5,5,1704,1563018444360,Y,3605,0
227,1,3,target,target_1,G,/+/The cotton farmers * warned about the bad floods * had * no other crops./,Did the farmers warn about the floods?,N,,0,9,had,10,2,9,12,3,1,1,876,1563018445236,Y,3605,0
227,1,3,target,target_1,G,/+/The cotton farmers * warned about the bad floods * had * no other crops./,Did the farmers warn about the floods?,N,,0,9,no,11,2,10,12,4,1,3,541,1563018445777,Y,3605,0
227,1,3,target,target_1,G,/+/The cotton farmers * warned about the bad floods * had * no other crops./,Did the farmers warn about the floods?,N,,0,9,other,12,2,11,12,4,2,3,612,1563018446389,Y,3605,0
227,1,3,target,target_1,G,/+/The cotton farmers * warned about the bad floods * had * no other crops./,Did the farmers warn about the floods?,N,,0,9,crops.,13,2,12,12,4,3,3,2209,1563018448598,Y,3605,0
227,1,4,filler,filler_10,,/+/There was a big hole in the road which blocked the traffic./,Was there a big hole in the road?,Y,,0,10,+,1,1,1,1,1,1,1,862,1563018453569,Y,3481,1
227,1,4,filler,filler_10,,/+/There was a big hole in the road which blocked the traffic./,Was there a big hole in the road?,Y,,0,10,There,2,2,1,12,1,1,12,1290,1563018454859,Y,3481,1
227,1,4,filler,filler_10,,/+/There was a big hole in the road which blocked the traffic./,Was there a big hole in the road?,Y,,0,10,was,3,2,2,12,1,2,12,1068,1563018455927,Y,3481,1
227,1,4,filler,filler_10,,/+/There was a big hole in the road which blocked the traffic./,Was there a big hole in the road?,Y,,0,10,a,4,2,3,12,1,3,12,632,1563018456559,Y,3481,1
227,1,4,filler,filler_10,,/+/There was a big hole in the road which blocked the traffic./,Was there a big hole in the road?,Y,,0,10,big,5,2,4,12,1,4,12,508,1563018457067,Y,3481,1
227,1,4,filler,filler_10,,/+/There was a big hole in the road which blocked the traffic./,Was there a big hole in the road?,Y,,0,10,hole,6,2,5,12,1,5,12,3232,1563018460299,Y,3481,1
227,1,4,filler,filler_10,,/+/There was a big hole in the road which blocked the traffic./,Was there a big hole in the road?,Y,,0,10,in,7,2,6,12,1,6,12,526,1563018460825,Y,3481,1
227,1,4,filler,filler_10,,/+/There was a big hole in the road which blocked the traffic./,Was there a big hole in the road?,Y,,0,10,the,8,2,7,12,1,7,12,735,1563018461560,Y,3481,1
227,1,4,filler,filler_10,,/+/There was a big hole in the road which blocked the traffic./,Was there a big hole in the road?,Y,,0,10,road,9,2,8,12,1,8,12,688,1563018462248,Y,3481,1
227,1,4,filler,filler_10,,/+/There was a big hole in the road which blocked the traffic./,Was there a big hole in the road?,Y,,0,10,which,10,2,9,12,1,9,12,1590,1563018463838,Y,3481,1
227,1,4,filler,filler_10,,/+/There was a big hole in the road which blocked the traffic./,Was there a big hole in the road?,Y,,0,10,blocked,11,2,10,12,1,10,12,746,1563018464584,Y,3481,1
227,1,4,filler,filler_10,,/+/There was a big hole in the road which blocked the traffic./,Was there a big hole in the road?,Y,,0,10,the,12,2,11,12,1,11,12,1608,1563018466192,Y,3481,1
227,1,4,filler,filler_10,,/+/There was a big hole in the road which blocked the traffic./,Was there a big hole in the road?,Y,,0,10,traffic.,13,2,12,12,1,12,12,5518,1563018471710,Y,3481,1
227,1,4,filler,filler_10,,/+/There was a big hole in the road which blocked the traffic./,Was there a big hole in the road?,Y,,0,10,the,14,2,11,12,1,11,12,504,1563018472214,Y,3481,1
227,1,4,filler,filler_10,,/+/There was a big hole in the road which blocked the traffic./,Was there a big hole in the road?,Y,,0,10,blocked,15,2,10,12,1,10,12,31,1563018472245,Y,3481,1
227,1,4,filler,filler_10,,/+/There was a big hole in the road which blocked the traffic./,Was there a big hole in the road?,Y,,0,10,which,16,2,9,12,1,9,12,32,1563018472277,Y,3481,1
227,1,4,filler,filler_10,,/+/There was a big hole in the road which blocked the traffic./,Was there a big hole in the road?,Y,,0,10,road,17,2,8,12,1,8,12,33,1563018472310,Y,3481,1
227,1,4,filler,filler_10,,/+/There was a big hole in the road which blocked the traffic./,Was there a big hole in the road?,Y,,0,10,the,18,2,7,12,1,7,12,33,1563018472343,Y,3481,1
227,1,4,filler,filler_10,,/+/There was a big hole in the road which blocked the traffic./,Was there a big hole in the road?,Y,,0,10,in,19,2,6,12,1,6,12,33,1563018472376,Y,3481,1
227,1,4,filler,filler_10,,/+/There was a big hole in the road which blocked the traffic./,Was there a big hole in the road?,Y,,0,10,hole,20,2,5,12,1,5,12,33,1563018472409,Y,3481,1
227,1,4,filler,filler_10,,/+/There was a big hole in the road which blocked the traffic./,Was there a big hole in the road?,Y,,0,10,big,21,2,4,12,1,4,12,33,1563018472442,Y,3481,1
227,1,4,filler,filler_10,,/+/There was a big hole in the road which blocked the traffic./,Was there a big hole in the road?,Y,,0,10,a,22,2,3,12,1,3,12,33,1563018472475,Y,3481,1
227,1,4,filler,filler_10,,/+/There was a big hole in the road which blocked the traffic./,Was there a big hole in the road?,Y,,0,10,was,23,2,2,12,1,2,12,33,1563018472508,Y,3481,1
227,1,4,filler,filler_10,,/+/There was a big hole in the road which blocked the traffic./,Was there a big hole in the road?,Y,,0,10,There,24,2,1,12,1,1,12,1193,1563018473701,Y,3481,1
227,1,4,filler,filler_10,,/+/There was a big hole in the road which blocked the traffic./,Was there a big hole in the road?,Y,,0,10,was,25,2,2,12,1,2,12,439,1563018474140,Y,3481,1
227,1,4,filler,filler_10,,/+/There was a big hole in the road which blocked the traffic./,Was there a big hole in the road?,Y,,0,10,a,26,2,3,12,1,3,12,387,1563018474527,Y,3481,1
227,1,4,filler,filler_10,,/+/There was a big hole in the road which blocked the traffic./,Was there a big hole in the road?,Y,,0,10,big,27,2,4,12,1,4,12,416,1563018474943,Y,3481,1
227,1,4,filler,filler_10,,/+/There was a big hole in the road which blocked the traffic./,Was there a big hole in the road?,Y,,0,10,hole,28,2,5,12,1,5,12,463,1563018475406,Y,3481,1
227,1,4,filler,filler_10,,/+/There was a big hole in the road which blocked the traffic./,Was there a big hole in the road?,Y,,0,10,in,29,2,6,12,1,6,12,374,1563018475780,Y,3481,1
227,1,4,filler,filler_10,,/+/There was a big hole in the road which blocked the traffic./,Was there a big hole in the road?,Y,,0,10,the,30,2,7,12,1,7,12,353,1563018476133,Y,3481,1
227,1,4,filler,filler_10,,/+/There was a big hole in the road which blocked the traffic./,Was there a big hole in the road?,Y,,0,10,road,31,2,8,12,1,8,12,335,1563018476468,Y,3481,1
227,1,4,filler,filler_10,,/+/There was a big hole in the road which blocked the traffic./,Was there a big hole in the road?,Y,,0,10,which,32,2,9,12,1,9,12,380,1563018476848,Y,3481,1
227,1,4,filler,filler_10,,/+/There was a big hole in the road which blocked the traffic./,Was there a big hole in the road?,Y,,0,10,blocked,33,2,10,12,1,10,12,259,1563018477107,Y,3481,1
227,1,4,filler,filler_10,,/+/There was a big hole in the road which blocked the traffic./,Was there a big hole in the road?,Y,,0,10,the,34,2,11,12,1,11,12,642,1563018477749,Y,3481,1
227,1,4,filler,filler_10,,/+/There was a big hole in the road which blocked the traffic./,Was there a big hole in the road?,Y,,0,10,traffic.,35,2,12,12,1,12,12,901,1563018478650,Y,3481,1
227,1,5,target,target_2,C,/+/The sunburned boys * who were * served the hot dogs * got * a stomach ache./,Did the boys serve the hot dogs?,N,,0,11,+,1,1,1,1,1,1,1,668,1563018483309,N,8382,1
227,1,5,target,target_2,C,/+/The sunburned boys * who were * served the hot dogs * got * a stomach ache./,Did the boys serve the hot dogs?,N,,0,11,The,2,2,1,13,1,1,3,932,1563018484241,N,8382,1
227,1,5,target,target_2,C,/+/The sunburned boys * who were * served the hot dogs * got * a stomach ache./,Did the boys serve the hot dogs?,N,,0,11,sunburned,3,2,2,13,1,2,3,6987,1563018491228,N,8382,1
227,1,5,target,target_2,C,/+/The sunburned boys * who were * served the hot dogs * got * a stomach ache./,Did the boys serve the hot dogs?,N,,0,11,boys,4,2,3,13,1,3,3,1772,1563018493000,N,8382,1
227,1,5,target,target_2,C,/+/The sunburned boys * who were * served the hot dogs * got * a stomach ache./,Did the boys serve the hot dogs?,N,,0,11,who,5,2,4,13,2,1,2,1582,1563018494582,N,8382,1
227,1,5,target,target_2,C,/+/The sunburned boys * who were * served the hot dogs * got * a stomach ache./,Did the boys serve the hot dogs?,N,,0,11,were,6,2,5,13,2,2,2,556,1563018495138,N,8382,1
227,1,5,target,target_2,C,/+/The sunburned boys * who were * served the hot dogs * got * a stomach ache./,Did the boys serve the hot dogs?,N,,0,11,served,7,2,6,13,3,1,4,2845,1563018497983,N,8382,1
227,1,5,target,target_2,C,/+/The sunburned boys * who were * served the hot dogs * got * a stomach ache./,Did the boys serve the hot dogs?,N,,0,11,the,8,2,7,13,3,2,4,498,1563018498481,N,8382,1
227,1,5,target,target_2,C,/+/The sunburned boys * who were * served the hot dogs * got * a stomach ache./,Did the boys serve the hot dogs?,N,,0,11,hot,9,2,8,13,3,3,4,548,1563018499029,N,8382,1
227,1,5,target,target_2,C,/+/The sunburned boys * who were * served the hot dogs * got * a stomach ache./,Did the boys serve the hot dogs?,N,,0,11,dogs,10,2,9,13,3,4,4,911,1563018499940,N,8382,1
227,1,5,target,target_2,C,/+/The sunburned boys * who were * served the hot dogs * got * a stomach ache./,Did the boys serve the hot dogs?,N,,0,11,got,11,2,10,13,4,1,1,559,1563018500499,N,8382,1
227,1,5,target,target_2,C,/+/The sunburned boys * who were * served the hot dogs * got * a stomach ache./,Did the boys serve the hot dogs?,N,,0,11,a,12,2,11,13,5,1,3,520,1563018501019,N,8382,1
227,1,5,target,target_2,C,/+/The sunburned boys * who were * served the hot dogs * got * a stomach ache./,Did the boys serve the hot dogs?,N,,0,11,stomach,13,2,12,13,5,2,3,2531,1563018503565,N,8382,1
227,1,5,target,target_2,C,/+/The sunburned boys * who were * served the hot dogs * got * a stomach ache./,Did the boys serve the hot dogs?,N,,0,11,ache.,14,2,13,13,5,3,3,1180,1563018504745,N,8382,1
227,1,5,target,target_2,C,/+/The sunburned boys * who were * served the hot dogs * got * a stomach ache./,Did the boys serve the hot dogs?,N,,0,11,stomach,15,2,12,13,5,2,3,234,1563018504979,N,8382,1
227,1,5,target,target_2,C,/+/The sunburned boys * who were * served the hot dogs * got * a stomach ache./,Did the boys serve the hot dogs?,N,,0,11,a,16,2,11,13,5,1,3,500,1563018505479,N,8382,1
227,1,5,target,target_2,C,/+/The sunburned boys * who were * served the hot dogs * got * a stomach ache./,Did the boys serve the hot dogs?,N,,0,11,got,17,2,10,13,4,1,1,33,1563018505512,N,8382,1
227,1,5,target,target_2,C,/+/The sunburned boys * who were * served the hot dogs * got * a stomach ache./,Did the boys serve the hot dogs?,N,,0,11,dogs,18,2,9,13,3,4,4,33,1563018505545,N,8382,1
227,1,5,target,target_2,C,/+/The sunburned boys * who were * served the hot dogs * got * a stomach ache./,Did the boys serve the hot dogs?,N,,0,11,hot,19,2,8,13,3,3,4,33,1563018505578,N,8382,1
227,1,5,target,target_2,C,/+/The sunburned boys * who were * served the hot dogs * got * a stomach ache./,Did the boys serve the hot dogs?,N,,0,11,the,20,2,7,13,3,2,4,33,1563018505611,N,8382,1
227,1,5,target,target_2,C,/+/The sunburned boys * who were * served the hot dogs * got * a stomach ache./,Did the boys serve the hot dogs?,N,,0,11,served,21,2,6,13,3,1,4,33,1563018505644,N,8382,1
227,1,5,target,target_2,C,/+/The sunburned boys * who were * served the hot dogs * got * a stomach ache./,Did the boys serve the hot dogs?,N,,0,11,were,22,2,5,13,2,2,2,33,1563018505677,N,8382,1
227,1,5,target,target_2,C,/+/The sunburned boys * who were * served the hot dogs * got * a stomach ache./,Did the boys serve the hot dogs?,N,,0,11,who,23,2,4,13,2,1,2,32,1563018505710,N,8382,1
227,1,5,target,target_2,C,/+/The sunburned boys * who were * served the hot dogs * got * a stomach ache./,Did the boys serve the hot dogs?,N,,0,11,boys,24,2,3,13,1,3,3,33,1563018505743,N,8382,1
227,1,5,target,target_2,C,/+/The sunburned boys * who were * served the hot dogs * got * a stomach ache./,Did the boys serve the hot dogs?,N,,0,11,sunburned,25,2,2,13,1,2,3,33,1563018505776,N,8382,1
227,1,5,target,target_2,C,/+/The sunburned boys * who were * served the hot dogs * got * a stomach ache./,Did the boys serve the hot dogs?,N,,0,11,The,26,2,1,13,1,1,3,502,1563018506279,N,8382,1
227,1,5,target,target_2,C,/+/The sunburned boys * who were * served the hot dogs * got * a stomach ache./,Did the boys serve the hot dogs?,N,,0,11,sunburned,27,2,2,13,1,2,3,363,1563018506642,N,8382,1
227,1,5,target,target_2,C,/+/The sunburned boys * who were * served the hot dogs * got * a stomach ache./,Did the boys serve the hot dogs?,N,,0,11,boys,28,2,3,13,1,3,3,600,1563018507242,N,8382,1
227,1,5,target,target_2,C,/+/The sunburned boys * who were * served the hot dogs * got * a stomach ache./,Did the boys serve the hot dogs?,N,,0,11,who,29,2,4,13,2,1,2,631,1563018507873,N,8382,1
227,1,5,target,target_2,C,/+/The sunburned boys * who were * served the hot dogs * got * a stomach ache./,Did the boys serve the hot dogs?,N,,0,11,were,30,2,5,13,2,2,2,870,1563018508743,N,8382,1
227,1,5,target,target_2,C,/+/The sunburned boys * who were * served the hot dogs * got * a stomach ache./,Did the boys serve the hot dogs?,N,,0,11,served,31,2,6,13,3,1,4,494,1563018509237,N,8382,1
227,1,5,target,target_2,C,/+/The sunburned boys * who were * served the hot dogs * got * a stomach ache./,Did the boys serve the hot dogs?,N,,0,11,the,32,2,7,13,3,2,4,546,1563018509783,N,8382,1
227,1,5,target,target_2,C,/+/The sunburned boys * who were * served the hot dogs * got * a stomach ache./,Did the boys serve the hot dogs?,N,,0,11,hot,33,2,8,13,3,3,4,539,1563018510322,N,8382,1
227,1,5,target,target_2,C,/+/The sunburned boys * who were * served the hot dogs * got * a stomach ache./,Did the boys serve the hot dogs?,N,,0,11,dogs,34,2,9,13,3,4,4,1436,1563018511758,N,8382,1
227,1,5,target,target_2,C,/+/The sunburned boys * who were * served the hot dogs * got * a stomach ache./,Did the boys serve the hot dogs?,N,,0,11,got,35,2,10,13,4,1,1,610,1563018512368,N,8382,1
227,1,5,target,target_2,C,/+/The sunburned boys * who were * served the hot dogs * got * a stomach ache./,Did the boys serve the hot dogs?,N,,0,11,dogs,36,2,9,13,3,4,4,227,1563018512595,N,8382,1
227,1,5,target,target_2,C,/+/The sunburned boys * who were * served the hot dogs * got * a stomach ache./,Did the boys serve the hot dogs?,N,,0,11,hot,37,2,8,13,3,3,4,171,1563018512766,N,8382,1
227,1,5,target,target_2,C,/+/The sunburned boys * who were * served the hot dogs * got * a stomach ache./,Did the boys serve the hot dogs?,N,,0,11,the,38,2,7,13,3,2,4,182,1563018512948,N,8382,1
227,1,5,target,target_2,C,/+/The sunburned boys * who were * served the hot dogs * got * a stomach ache./,Did the boys serve the hot dogs?,N,,0,11,served,39,2,6,13,3,1,4,435,1563018513383,N,8382,1
227,1,5,target,target_2,C,/+/The sunburned boys * who were * served the hot dogs * got * a stomach ache./,Did the boys serve the hot dogs?,N,,0,11,were,40,2,5,13,2,2,2,542,1563018513925,N,8382,1
227,1,5,target,target_2,C,/+/The sunburned boys * who were * served the hot dogs * got * a stomach ache./,Did the boys serve the hot dogs?,N,,0,11,who,41,2,4,13,2,1,2,550,1563018514475,N,8382,1
227,1,5,target,target_2,C,/+/The sunburned boys * who were * served the hot dogs * got * a stomach ache./,Did the boys serve the hot dogs?,N,,0,11,were,42,2,5,13,2,2,2,225,1563018514700,N,8382,1
227,1,5,target,target_2,C,/+/The sunburned boys * who were * served the hot dogs * got * a stomach ache./,Did the boys serve the hot dogs?,N,,0,11,served,43,2,6,13,3,1,4,483,1563018515183,N,8382,1
227,1,5,target,target_2,C,/+/The sunburned boys * who were * served the hot dogs * got * a stomach ache./,Did the boys serve the hot dogs?,N,,0,11,the,44,2,7,13,3,2,4,422,1563018515605,N,8382,1
227,1,5,target,target_2,C,/+/The sunburned boys * who were * served the hot dogs * got * a stomach ache./,Did the boys serve the hot dogs?,N,,0,11,hot,45,2,8,13,3,3,4,418,1563018516023,N,8382,1
227,1,5,target,target_2,C,/+/The sunburned boys * who were * served the hot dogs * got * a stomach ache./,Did the boys serve the hot dogs?,N,,0,11,dogs,46,2,9,13,3,4,4,358,1563018516381,N,8382,1
227,1,5,target,target_2,C,/+/The sunburned boys * who were * served the hot dogs * got * a stomach ache./,Did the boys serve the hot dogs?,N,,0,11,got,47,2,10,13,4,1,1,379,1563018516760,N,8382,1
227,1,5,target,target_2,C,/+/The sunburned boys * who were * served the hot dogs * got * a stomach ache./,Did the boys serve the hot dogs?,N,,0,11,a,48,2,11,13,5,1,3,726,1563018517486,N,8382,1
227,1,5,target,target_2,C,/+/The sunburned boys * who were * served the hot dogs * got * a stomach ache./,Did the boys serve the hot dogs?,N,,0,11,stomach,49,2,12,13,5,2,3,1265,1563018518751,N,8382,1
227,1,5,target,target_2,C,/+/The sunburned boys * who were * served the hot dogs * got * a stomach ache./,Did the boys serve the hot dogs?,N,,0,11,a,50,2,11,13,5,1,3,255,1563018519006,N,8382,1
227,1,5,target,target_2,C,/+/The sunburned boys * who were * served the hot dogs * got * a stomach ache./,Did the boys serve the hot dogs?,N,,0,11,got,51,2,10,13,4,1,1,187,1563018519193,N,8382,1
227,1,5,target,target_2,C,/+/The sunburned boys * who were * served the hot dogs * got * a stomach ache./,Did the boys serve the hot dogs?,N,,0,11,dogs,52,2,9,13,3,4,4,591,1563018519784,N,8382,1
227,1,5,target,target_2,C,/+/The sunburned boys * who were * served the hot dogs * got * a stomach ache./,Did the boys serve the hot dogs?,N,,0,11,got,53,2,10,13,4,1,1,335,1563018520119,N,8382,1
227,1,5,target,target_2,C,/+/The sunburned boys * who were * served the hot dogs * got * a stomach ache./,Did the boys serve the hot dogs?,N,,0,11,a,54,2,11,13,5,1,3,397,1563018520516,N,8382,1
227,1,5,target,target_2,C,/+/The sunburned boys * who were * served the hot dogs * got * a stomach ache./,Did the boys serve the hot dogs?,N,,0,11,stomach,55,2,12,13,5,2,3,415,1563018520931,N,8382,1
227,1,5,target,target_2,C,/+/The sunburned boys * who were * served the hot dogs * got * a stomach ache./,Did the boys serve the hot dogs?,N,,0,11,ache.,56,2,13,13,5,3,3,762,1563018521693,N,8382,1
227,1,6,filler,filler_17,,/+/The students who failed the exam were asked to take it again./,Should all students take the exam again?,N,,0,12,+,1,1,1,1,1,1,1,1159,1563018531750,N,5963,1
227,1,6,filler,filler_17,,/+/The students who failed the exam were asked to take it again./,Should all students take the exam again?,N,,0,12,The,2,2,1,12,1,1,12,528,1563018532278,N,5963,1
227,1,6,filler,filler_17,,/+/The students who failed the exam were asked to take it again./,Should all students take the exam again?,N,,0,12,students,3,2,2,12,1,2,12,723,1563018533001,N,5963,1
227,1,6,filler,filler_17,,/+/The students who failed the exam were asked to take it again./,Should all students take the exam again?,N,,0,12,who,4,2,3,12,1,3,12,811,1563018533812,N,5963,1
227,1,6,filler,filler_17,,/+/The students who failed the exam were asked to take it again./,Should all students take the exam again?,N,,0,12,failed,5,2,4,12,1,4,12,631,1563018534443,N,5963,1
227,1,6,filler,filler_17,,/+/The students who failed the exam were asked to take it again./,Should all students take the exam again?,N,,0,12,the,6,2,5,12,1,5,12,526,1563018534969,N,5963,1
227,1,6,filler,filler_17,,/+/The students who failed the exam were asked to take it again./,Should all students take the exam again?,N,,0,12,exam,7,2,6,12,1,6,12,875,1563018535844,N,5963,1
227,1,6,filler,filler_17,,/+/The students who failed the exam were asked to take it again./,Should all students take the exam again?,N,,0,12,were,8,2,7,12,1,7,12,479,1563018536323,N,5963,1
227,1,6,filler,filler_17,,/+/The students who failed the exam were asked to take it again./,Should all students take the exam again?,N,,0,12,asked,9,2,8,12,1,8,12,813,1563018537136,N,5963,1
227,1,6,filler,filler_17,,/+/The students who failed the exam were asked to take it again./,Should all students take the exam again?,N,,0,12,to,10,2,9,12,1,9,12,535,1563018537671,N,5963,1
227,1,6,filler,filler_17,,/+/The students who failed the exam were asked to take it again./,Should all students take the exam again?,N,,0,12,take,11,2,10,12,1,10,12,553,1563018538224,N,5963,1
227,1,6,filler,filler_17,,/+/The students who failed the exam were asked to take it again./,Should all students take the exam again?,N,,0,12,it,12,2,11,12,1,11,12,456,1563018538680,N,5963,1
227,1,6,filler,filler_17,,/+/The students who failed the exam were asked to take it again./,Should all students take the exam again?,N,,0,12,again.,13,2,12,12,1,12,12,1120,1563018539800,N,5963,1
227,1,7,filler,filler_25,,/+/The suitcase which Mike bought has been broken down by his son./,Has the suitcase been broken by Mike?,N,,0,13,+,1,1,1,1,1,1,1,1093,1563018547368,N,5291,1
227,1,7,filler,filler_25,,/+/The suitcase which Mike bought has been broken down by his son./,Has the suitcase been broken by Mike?,N,,0,13,The,2,2,1,12,1,1,12,448,1563018547816,N,5291,1
227,1,7,filler,filler_25,,/+/The suitcase which Mike bought has been broken down by his son./,Has the suitcase been broken by Mike?,N,,0,13,suitcase,3,2,2,12,1,2,12,451,1563018548267,N,5291,1
227,1,7,filler,filler_25,,/+/The suitcase which Mike bought has been broken down by his son./,Has the suitcase been broken by Mike?,N,,0,13,which,4,2,3,12,1,3,12,558,1563018548825,N,5291,1
227,1,7,filler,filler_25,,/+/The suitcase which Mike bought has been broken down by his son./,Has the suitcase been broken by Mike?,N,,0,13,Mike,5,2,4,12,1,4,12,553,1563018549378,N,5291,1
227,1,7,filler,filler_25,,/+/The suitcase which Mike bought has been broken down by his son./,Has the suitcase been broken by Mike?,N,,0,13,bought,6,2,5,12,1,5,12,847,1563018550225,N,5291,1
227,1,7,filler,filler_25,,/+/The suitcase which Mike bought has been broken down by his son./,Has the suitcase been broken by Mike?,N,,0,13,Mike,7,2,4,12,1,4,12,306,1563018550531,N,5291,1
227,1,7,filler,filler_25,,/+/The suitcase which Mike bought has been broken down by his son./,Has the suitcase been broken by Mike?,N,,0,13,which,8,2,3,12,1,3,12,285,1563018550816,N,5291,1
227,1,7,filler,filler_25,,/+/The suitcase which Mike bought has been broken down by his son./,Has the suitcase been broken by Mike?,N,,0,13,suitcase,9,2,2,12,1,2,12,298,1563018551114,N,5291,1
227,1,7,filler,filler_25,,/+/The suitcase which Mike bought has been broken down by his son./,Has the suitcase been broken by Mike?,N,,0,13,The,10,2,1,12,1,1,12,567,1563018551681,N,5291,1
227,1,7,filler,filler_25,,/+/The suitcase which Mike bought has been broken down by his son./,Has the suitcase been broken by Mike?,N,,0,13,suitcase,11,2,2,12,1,2,12,1456,1563018553137,N,5291,1
227,1,7,filler,filler_25,,/+/The suitcase which Mike bought has been broken down by his son./,Has the suitcase been broken by Mike?,N,,0,13,which,12,2,3,12,1,3,12,814,1563018553951,N,5291,1
227,1,7,filler,filler_25,,/+/The suitcase which Mike bought has been broken down by his son./,Has the suitcase been broken by Mike?,N,,0,13,Mike,13,2,4,12,1,4,12,1614,1563018555565,N,5291,1
227,1,7,filler,filler_25,,/+/The suitcase which Mike bought has been broken down by his son./,Has the suitcase been broken by Mike?,N,,0,13,bought,14,2,5,12,1,5,12,481,1563018556046,N,5291,1
227,1,7,filler,filler_25,,/+/The suitcase which Mike bought has been broken down by his son./,Has the suitcase been broken by Mike?,N,,0,13,has,15,2,6,12,1,6,12,641,1563018556687,N,5291,1
227,1,7,filler,filler_25,,/+/The suitcase which Mike bought has been broken down by his son./,Has the suitcase been broken by Mike?,N,,0,13,been,16,2,7,12,1,7,12,525,1563018557212,N,5291,1
227,1,7,filler,filler_25,,/+/The suitcase which Mike bought has been broken down by his son./,Has the suitcase been broken by Mike?,N,,0,13,broken,17,2,8,12,1,8,12,689,1563018557901,N,5291,1
227,1,7,filler,filler_25,,/+/The suitcase which Mike bought has been broken down by his son./,Has the suitcase been broken by Mike?,N,,0,13,down,18,2,9,12,1,9,12,607,1563018558508,N,5291,1
227,1,7,filler,filler_25,,/+/The suitcase which Mike bought has been broken down by his son./,Has the suitcase been broken by Mike?,N,,0,13,by,19,2,10,12,1,10,12,539,1563018559047,N,5291,1
227,1,7,filler,filler_25,,/+/The suitcase which Mike bought has been broken down by his son./,Has the suitcase been broken by Mike?,N,,0,13,his,20,2,11,12,1,11,12,442,1563018559489,N,5291,1
227,1,7,filler,filler_25,,/+/The suitcase which Mike bought has been broken down by his son./,Has the suitcase been broken by Mike?,N,,0,13,son.,21,2,12,12,1,12,12,465,1563018559954,N,5291,1
227,1,8,filler,filler_24,,/+/The roommate has married the man who comes from the west of China./,Has the roomate married?,Y,,0,14,+,1,1,1,1,1,1,1,615,1563018566374,Y,2748,1
227,1,8,filler,filler_24,,/+/The roommate has married the man who comes from the west of China./,Has the roomate married?,Y,,0,14,The,2,2,1,13,1,1,13,741,1563018567115,Y,2748,1
227,1,8,filler,filler_24,,/+/The roommate has married the man who comes from the west of China./,Has the roomate married?,Y,,0,14,roommate,3,2,2,13,1,2,13,2405,1563018569520,Y,2748,1
227,1,8,filler,filler_24,,/+/The roommate has married the man who comes from the west of China./,Has the roomate married?,Y,,0,14,has,4,2,3,13,1,3,13,455,1563018569975,Y,2748,1
227,1,8,filler,filler_24,,/+/The roommate has married the man who comes from the west of China./,Has the roomate married?,Y,,0,14,married,5,2,4,13,1,4,13,5802,1563018575777,Y,2748,1
227,1,8,filler,filler_24,,/+/The roommate has married the man who comes from the west of China./,Has the roomate married?,Y,,0,14,has,6,2,3,13,1,3,13,349,1563018576126,Y,2748,1
227,1,8,filler,filler_24,,/+/The roommate has married the man who comes from the west of China./,Has the roomate married?,Y,,0,14,roommate,7,2,2,13,1,2,13,883,1563018577009,Y,2748,1
227,1,8,filler,filler_24,,/+/The roommate has married the man who comes from the west of China./,Has the roomate married?,Y,,0,14,has,8,2,3,13,1,3,13,353,1563018577362,Y,2748,1
227,1,8,filler,filler_24,,/+/The roommate has married the man who comes from the west of China./,Has the roomate married?,Y,,0,14,married,9,2,4,13,1,4,13,632,1563018577994,Y,2748,1
227,1,8,filler,filler_24,,/+/The roommate has married the man who comes from the west of China./,Has the roomate married?,Y,,0,14,the,10,2,5,13,1,5,13,712,1563018578706,Y,2748,1
227,1,8,filler,filler_24,,/+/The roommate has married the man who comes from the west of China./,Has the roomate married?,Y,,0,14,man,11,2,6,13,1,6,13,625,1563018579331,Y,2748,1
227,1,8,filler,filler_24,,/+/The roommate has married the man who comes from the west of China./,Has the roomate married?,Y,,0,14,who,12,2,7,13,1,7,13,1101,1563018580432,Y,2748,1
227,1,8,filler,filler_24,,/+/The roommate has married the man who comes from the west of China./,Has the roomate married?,Y,,0,14,comes,13,2,8,13,1,8,13,571,1563018581003,Y,2748,1
227,1,8,filler,filler_24,,/+/The roommate has married the man who comes from the west of China./,Has the roomate married?,Y,,0,14,from,14,2,9,13,1,9,13,459,1563018581462,Y,2748,1
227,1,8,filler,filler_24,,/+/The roommate has married the man who comes from the west of China./,Has the roomate married?,Y,,0,14,the,15,2,10,13,1,10,13,547,1563018582009,Y,2748,1
227,1,8,filler,filler_24,,/+/The roommate has married the man who comes from the west of China./,Has the roomate married?,Y,,0,14,west,16,2,11,13,1,11,13,972,1563018582981,Y,2748,1
227,1,8,filler,filler_24,,/+/The roommate has married the man who comes from the west of China./,Has the roomate married?,Y,,0,14,of,17,2,12,13,1,12,13,1077,1563018584058,Y,2748,1
227,1,8,filler,filler_24,,/+/The roommate has married the man who comes from the west of China./,Has the roomate married?,Y,,0,14,China.,18,2,13,13,1,13,13,2302,1563018586360,Y,2748,1
227,1,8,filler,filler_24,,/+/The roommate has married the man who comes from the west of China./,Has the roomate married?,Y,,0,14,of,19,2,12,13,1,12,13,510,1563018586870,Y,2748,1
227,1,8,filler,filler_24,,/+/The roommate has married the man who comes from the west of China./,Has the roomate married?,Y,,0,14,west,20,2,11,13,1,11,13,31,1563018586901,Y,2748,1
227,1,8,filler,filler_24,,/+/The roommate has married the man who comes from the west of China./,Has the roomate married?,Y,,0,14,the,21,2,10,13,1,10,13,25,1563018586927,Y,2748,1
227,1,8,filler,filler_24,,/+/The roommate has married the man who comes from the west of China./,Has the roomate married?,Y,,0,14,from,22,2,9,13,1,9,13,33,1563018586960,Y,2748,1
227,1,8,filler,filler_24,,/+/The roommate has married the man who comes from the west of China./,Has the roomate married?,Y,,0,14,comes,23,2,8,13,1,8,13,33,1563018586993,Y,2748,1
227,1,8,filler,filler_24,,/+/The roommate has married the man who comes from the west of China./,Has the roomate married?,Y,,0,14,who,24,2,7,13,1,7,13,33,1563018587026,Y,2748,1
227,1,8,filler,filler_24,,/+/The roommate has married the man who comes from the west of China./,Has the roomate married?,Y,,0,14,man,25,2,6,13,1,6,13,33,1563018587059,Y,2748,1
227,1,8,filler,filler_24,,/+/The roommate has married the man who comes from the west of China./,Has the roomate married?,Y,,0,14,the,26,2,5,13,1,5,13,33,1563018587092,Y,2748,1
227,1,8,filler,filler_24,,/+/The roommate has married the man who comes from the west of China./,Has the roomate married?,Y,,0,14,married,27,2,4,13,1,4,13,33,1563018587125,Y,2748,1
227,1,8,filler,filler_24,,/+/The roommate has married the man who comes from the west of China./,Has the roomate married?,Y,,0,14,has,28,2,3,13,1,3,13,33,1563018587158,Y,2748,1
227,1,8,filler,filler_24,,/+/The roommate has married the man who comes from the west of China./,Has the roomate married?,Y,,0,14,roommate,29,2,2,13,1,2,13,33,1563018587191,Y,2748,1
227,1,8,filler,filler_24,,/+/The roommate has married the man who comes from the west of China./,Has the roomate married?,Y,,0,14,The,30,2,1,13,1,1,13,529,1563018587721,Y,2748,1
227,1,8,filler,filler_24,,/+/The roommate has married the man who comes from the west of China./,Has the roomate married?,Y,,0,14,roommate,31,2,2,13,1,2,13,299,1563018588020,Y,2748,1
227,1,8,filler,filler_24,,/+/The roommate has married the man who comes from the west of China./,Has the roomate married?,Y,,0,14,has,32,2,3,13,1,3,13,364,1563018588384,Y,2748,1
227,1,8,filler,filler_24,,/+/The roommate has married the man who comes from the west of China./,Has the roomate married?,Y,,0,14,married,33,2,4,13,1,4,13,663,1563018589047,Y,2748,1
227,1,8,filler,filler_24,,/+/The roommate has married the man who comes from the west of China./,Has the roomate married?,Y,,0,14,has,34,2,3,13,1,3,13,637,1563018589684,Y,2748,1
227,1,8,filler,filler_24,,/+/The roommate has married the man who comes from the west of China./,Has the roomate married?,Y,,0,14,married,35,2,4,13,1,4,13,1290,1563018590974,Y,2748,1
227,1,8,filler,filler_24,,/+/The roommate has married the man who comes from the west of China./,Has the roomate married?,Y,,0,14,the,36,2,5,13,1,5,13,428,1563018591402,Y,2748,1
227,1,8,filler,filler_24,,/+/The roommate has married the man who comes from the west of China./,Has the roomate married?,Y,,0,14,man,37,2,6,13,1,6,13,511,1563018591913,Y,2748,1
227,1,8,filler,filler_24,,/+/The roommate has married the man who comes from the west of China./,Has the roomate married?,Y,,0,14,who,38,2,7,13,1,7,13,455,1563018592368,Y,2748,1
227,1,8,filler,filler_24,,/+/The roommate has married the man who comes from the west of China./,Has the roomate married?,Y,,0,14,comes,39,2,8,13,1,8,13,390,1563018592758,Y,2748,1
227,1,8,filler,filler_24,,/+/The roommate has married the man who comes from the west of China./,Has the roomate married?,Y,,0,14,from,40,2,9,13,1,9,13,351,1563018593109,Y,2748,1
227,1,8,filler,filler_24,,/+/The roommate has married the man who comes from the west of China./,Has the roomate married?,Y,,0,14,the,41,2,10,13,1,10,13,289,1563018593398,Y,2748,1
227,1,8,filler,filler_24,,/+/The roommate has married the man who comes from the west of China./,Has the roomate married?,Y,,0,14,west,42,2,11,13,1,11,13,348,1563018593746,Y,2748,1
227,1,8,filler,filler_24,,/+/The roommate has married the man who comes from the west of China./,Has the roomate married?,Y,,0,14,of,43,2,12,13,1,12,13,474,1563018594220,Y,2748,1
227,1,8,filler,filler_24,,/+/The roommate has married the man who comes from the west of China./,Has the roomate married?,Y,,0,14,China.,44,2,13,13,1,13,13,781,1563018595001,Y,2748,1
227,1,9,target,target_15,G,/+/The confused student * asked about a question * lowered * his head silently./,Did the student ask about a question?,N,,0,15,+,1,1,1,1,1,1,1,1351,1563018599635,N,4340,1
227,1,9,target,target_15,G,/+/The confused student * asked about a question * lowered * his head silently./,Did the student ask about a question?,N,,0,15,The,2,2,1,11,1,1,3,917,1563018600552,N,4340,1
227,1,9,target,target_15,G,/+/The confused student * asked about a question * lowered * his head silently./,Did the student ask about a question?,N,,0,15,confused,3,2,2,11,1,2,3,3789,1563018604341,N,4340,1
227,1,9,target,target_15,G,/+/The confused student * asked about a question * lowered * his head silently./,Did the student ask about a question?,N,,0,15,student,4,2,3,11,1,3,3,966,1563018605307,N,4340,1
227,1,9,target,target_15,G,/+/The confused student * asked about a question * lowered * his head silently./,Did the student ask about a question?,N,,0,15,asked,5,2,4,11,2,1,4,1046,1563018606353,N,4340,1
227,1,9,target,target_15,G,/+/The confused student * asked about a question * lowered * his head silently./,Did the student ask about a question?,N,,0,15,about,6,2,5,11,2,2,4,958,1563018607311,N,4340,1
227,1,9,target,target_15,G,/+/The confused student * asked about a question * lowered * his head silently./,Did the student ask about a question?,N,,0,15,a,7,2,6,11,2,3,4,641,1563018607952,N,4340,1
227,1,9,target,target_15,G,/+/The confused student * asked about a question * lowered * his head silently./,Did the student ask about a question?,N,,0,15,question,8,2,7,11,2,4,4,494,1563018608446,N,4340,1
227,1,9,target,target_15,G,/+/The confused student * asked about a question * lowered * his head silently./,Did the student ask about a question?,N,,0,15,lowered,9,2,8,11,3,1,1,517,1563018608963,N,4340,1
227,1,9,target,target_15,G,/+/The confused student * asked about a question * lowered * his head silently./,Did the student ask about a question?,N,,0,15,his,10,2,9,11,4,1,3,721,1563018609684,N,4340,1
227,1,9,target,target_15,G,/+/The confused student * asked about a question * lowered * his head silently./,Did the student ask about a question?,N,,0,15,lowered,11,2,8,11,3,1,1,468,1563018610152,N,4340,1
227,1,9,target,target_15,G,/+/The confused student * asked about a question * lowered * his head silently./,Did the student ask about a question?,N,,0,15,his,12,2,9,11,4,1,3,421,1563018610573,N,4340,1
227,1,9,target,target_15,G,/+/The confused student * asked about a question * lowered * his head silently./,Did the student ask about a question?,N,,0,15,head,13,2,10,11,4,2,3,479,1563018611052,N,4340,1
227,1,9,target,target_15,G,/+/The confused student * asked about a question * lowered * his head silently./,Did the student ask about a question?,N,,0,15,silently.,14,2,11,11,4,3,3,1609,1563018612661,N,4340,1
227,1,9,target,target_15,G,/+/The confused student * asked about a question * lowered * his head silently./,Did the student ask about a question?,N,,0,15,head,15,2,10,11,4,2,3,276,1563018612937,N,4340,1
227,1,9,target,target_15,G,/+/The confused student * asked about a question * lowered * his head silently./,Did the student ask about a question?,N,,0,15,his,16,2,9,11,4,1,3,221,1563018613158,N,4340,1
227,1,9,target,target_15,G,/+/The confused student * asked about a question * lowered * his head silently./,Did the student ask about a question?,N,,0,15,lowered,17,2,8,11,3,1,1,265,1563018613423,N,4340,1
227,1,9,target,target_15,G,/+/The confused student * asked about a question * lowered * his head silently./,Did the student ask about a question?,N,,0,15,question,18,2,7,11,2,4,4,376,1563018613799,N,4340,1
227,1,9,target,target_15,G,/+/The confused student * asked about a question * lowered * his head silently./,Did the student ask about a question?,N,,0,15,lowered,19,2,8,11,3,1,1,288,1563018614087,N,4340,1
227,1,9,target,target_15,G,/+/The confused student * asked about a question * lowered * his head silently./,Did the student ask about a question?,N,,0,15,his,20,2,9,11,4,1,3,254,1563018614341,N,4340,1
227,1,9,target,target_15,G,/+/The confused student * asked about a question * lowered * his head silently./,Did the student ask about a question?,N,,0,15,head,21,2,10,11,4,2,3,408,1563018614749,N,4340,1
227,1,9,target,target_15,G,/+/The confused student * asked about a question * lowered * his head silently./,Did the student ask about a question?,N,,0,15,silently.,22,2,11,11,4,3,3,571,1563018615320,N,4340,1
227,1,10,filler,filler_22,,/+/The girl's life was saved because the doctor acted so well./,Did the girl die?,N,,0,16,+,1,1,1,1,1,1,1,493,1563018620675,N,2061,1
227,1,10,filler,filler_22,,/+/The girl's life was saved because the doctor acted so well./,Did the girl die?,N,,0,16,The,2,2,1,11,1,1,11,527,1563018621202,N,2061,1
227,1,10,filler,filler_22,,/+/The girl's life was saved because the doctor acted so well./,Did the girl die?,N,,0,16,girl's,3,2,2,11,1,2,11,551,1563018621753,N,2061,1
227,1,10,filler,filler_22,,/+/The girl's life was saved because the doctor acted so well./,Did the girl die?,N,,0,16,life,4,2,3,11,1,3,11,863,1563018622616,N,2061,1
227,1,10,filler,filler_22,,/+/The girl's life was saved because the doctor acted so well./,Did the girl die?,N,,0,16,was,5,2,4,11,1,4,11,913,1563018623529,N,2061,1
227,1,10,filler,filler_22,,/+/The girl's life was saved because the doctor acted so well./,Did the girl die?,N,,0,16,saved,6,2,5,11,1,5,11,1090,1563018624619,N,2061,1
227,1,10,filler,filler_22,,/+/The girl's life was saved because the doctor acted so well./,Did the girl die?,N,,0,16,because,7,2,6,11,1,6,11,1976,1563018626595,N,2061,1
227,1,10,filler,filler_22,,/+/The girl's life was saved because the doctor acted so well./,Did the girl die?,N,,0,16,the,8,2,7,11,1,7,11,410,1563018627005,N,2061,1
227,1,10,filler,filler_22,,/+/The girl's life was saved because the doctor acted so well./,Did the girl die?,N,,0,16,doctor,9,2,8,11,1,8,11,463,1563018627468,N,2061,1
227,1,10,filler,filler_22,,/+/The girl's life was saved because the doctor acted so well./,Did the girl die?,N,,0,16,acted,10,2,9,11,1,9,11,1326,1563018628794,N,2061,1
227,1,10,filler,filler_22,,/+/The girl's life was saved because the doctor acted so well./,Did the girl die?,N,,0,16,so,11,2,10,11,1,10,11,586,1563018629380,N,2061,1
227,1,10,filler,filler_22,,/+/The girl's life was saved because the doctor acted so well./,Did the girl die?,N,,0,16,well.,12,2,11,11,1,11,11,506,1563018629886,N,2061,1
227,1,11,target,target_4,G,/+/The convicted criminal * watched at the railway station * was * following the boy./,Did someone watch the criminal?,Y,,0,17,+,1,1,1,1,1,1,1,433,1563018632899,N,6649,0
227,1,11,target,target_4,G,/+/The convicted criminal * watched at the railway station * was * following the boy./,Did someone watch the criminal?,Y,,0,17,The,2,2,1,12,1,1,3,433,1563018633332,N,6649,0
227,1,11,target,target_4,G,/+/The convicted criminal * watched at the railway station * was * following the boy./,Did someone watch the criminal?,Y,,0,17,convicted,3,2,2,12,1,2,3,1151,1563018634483,N,6649,0
227,1,11,target,target_4,G,/+/The convicted criminal * watched at the railway station * was * following the boy./,Did someone watch the criminal?,Y,,0,17,criminal,4,2,3,12,1,3,3,2183,1563018636666,N,6649,0
227,1,11,target,target_4,G,/+/The convicted criminal * watched at the railway station * was * following the boy./,Did someone watch the criminal?,Y,,0,17,watched,5,2,4,12,2,1,5,891,1563018637557,N,6649,0
227,1,11,target,target_4,G,/+/The convicted criminal * watched at the railway station * was * following the boy./,Did someone watch the criminal?,Y,,0,17,at,6,2,5,12,2,2,5,466,1563018638023,N,6649,0
227,1,11,target,target_4,G,/+/The convicted criminal * watched at the railway station * was * following the boy./,Did someone watch the criminal?,Y,,0,17,the,7,2,6,12,2,3,5,622,1563018638645,N,6649,0
227,1,11,target,target_4,G,/+/The convicted criminal * watched at the railway station * was * following the boy./,Did someone watch the criminal?,Y,,0,17,railway,8,2,7,12,2,4,5,1290,1563018639935,N,6649,0
227,1,11,target,target_4,G,/+/The convicted criminal * watched at the railway station * was * following the boy./,Did someone watch the criminal?,Y,,0,17,station,9,2,8,12,2,5,5,1692,1563018641627,N,6649,0
227,1,11,target,target_4,G,/+/The convicted criminal * watched at the railway station * was * following the boy./,Did someone watch the criminal?,Y,,0,17,was,10,2,9,12,3,1,1,672,1563018642299,N,6649,0
227,1,11,target,target_4,G,/+/The convicted criminal * watched at the railway station * was * following the boy./,Did someone watch the criminal?,Y,,0,17,following,11,2,10,12,4,1,3,1213,1563018643512,N,6649,0
227,1,11,target,target_4,G,/+/The convicted criminal * watched at the railway station * was * following the boy./,Did someone watch the criminal?,Y,,0,17,the,12,2,11,12,4,2,3,658,1563018644170,N,6649,0
227,1,11,target,target_4,G,/+/The convicted criminal * watched at the railway station * was * following the boy./,Did someone watch the criminal?,Y,,0,17,boy.,13,2,12,12,4,3,3,870,1563018645040,N,6649,0
227,1,12,filler,filler_35,,/+/The company building was completed successfully in the third quarter./,Was the company building completed?,Y,,0,18,+,1,1,1,1,1,1,1,516,1563018652730,N,3138,0
227,1,12,filler,filler_35,,/+/The company building was completed successfully in the third quarter./,Was the company building completed?,Y,,0,18,The,2,2,1,10,1,1,10,455,1563018653185,N,3138,0
227,1,12,filler,filler_35,,/+/The company building was completed successfully in the third quarter./,Was the company building completed?,Y,,0,18,company,3,2,2,10,1,2,10,529,1563018653714,N,3138,0
227,1,12,filler,filler_35,,/+/The company building was completed successfully in the third quarter./,Was the company building completed?,Y,,0,18,building,4,2,3,10,1,3,10,581,1563018654295,N,3138,0
227,1,12,filler,filler_35,,/+/The company building was completed successfully in the third quarter./,Was the company building completed?,Y,,0,18,was,5,2,4,10,1,4,10,491,1563018654786,N,3138,0
227,1,12,filler,filler_35,,/+/The company building was completed successfully in the third quarter./,Was the company building completed?,Y,,0,18,completed,6,2,5,10,1,5,10,2762,1563018657548,N,3138,0
227,1,12,filler,filler_35,,/+/The company building was completed successfully in the third quarter./,Was the company building completed?,Y,,0,18,successfully,7,2,6,10,1,6,10,885,1563018658433,N,3138,0
227,1,12,filler,filler_35,,/+/The company building was completed successfully in the third quarter./,Was the company building completed?,Y,,0,18,in,8,2,7,10,1,7,10,572,1563018659005,N,3138,0
227,1,12,filler,filler_35,,/+/The company building was completed successfully in the third quarter./,Was the company building completed?,Y,,0,18,the,9,2,8,10,1,8,10,443,1563018659448,N,3138,0
227,1,12,filler,filler_35,,/+/The company building was completed successfully in the third quarter./,Was the company building completed?,Y,,0,18,third,10,2,9,10,1,9,10,669,1563018660117,N,3138,0
227,1,12,filler,filler_35,,/+/The company building was completed successfully in the third quarter./,Was the company building completed?,Y,,0,18,quarter.,11,2,10,10,1,10,10,1682,1563018661799,N,3138,0
227,1,13,target,target_8,C,/+/The older kids * who were * showed all the dances * felt * amazed at the party./,Did the older kids show the dances?,N,,0,19,+,1,1,1,1,1,1,1,521,1563018665989,Y,5821,0
227,1,13,target,target_8,C,/+/The older kids * who were * showed all the dances * felt * amazed at the party./,Did the older kids show the dances?,N,,0,19,The,2,2,1,14,1,1,3,424,1563018666413,Y,5821,0
227,1,13,target,target_8,C,/+/The older kids * who were * showed all the dances * felt * amazed at the party./,Did the older kids show the dances?,N,,0,19,older,3,2,2,14,1,2,3,511,1563018666924,Y,5821,0
227,1,13,target,target_8,C,/+/The older kids * who were * showed all the dances * felt * amazed at the party./,Did the older kids show the dances?,N,,0,19,kids,4,2,3,14,1,3,3,471,1563018667395,Y,5821,0
227,1,13,target,target_8,C,/+/The older kids * who were * showed all the dances * felt * amazed at the party./,Did the older kids show the dances?,N,,0,19,who,5,2,4,14,2,1,2,765,1563018668160,Y,5821,0
227,1,13,target,target_8,C,/+/The older kids * who were * showed all the dances * felt * amazed at the party./,Did the older kids show the dances?,N,,0,19,were,6,2,5,14,2,2,2,987,1563018669147,Y,5821,0
227,1,13,target,target_8,C,/+/The older kids * who were * showed all the dances * felt * amazed at the party./,Did the older kids show the dances?,N,,0,19,showed,7,2,6,14,3,1,4,936,1563018670083,Y,5821,0
227,1,13,target,target_8,C,/+/The older kids * who were * showed all the dances * felt * amazed at the party./,Did the older kids show the dances?,N,,0,19,all,8,2,7,14,3,2,4,577,1563018670660,Y,5821,0
227,1,13,target,target_8,C,/+/The older kids * who were * showed all the dances * felt * amazed at the party./,Did the older kids show the dances?,N,,0,19,the,9,2,8,14,3,3,4,507,1563018671167,Y,5821,0
227,1,13,target,target_8,C,/+/The older kids * who were * showed all the dances * felt * amazed at the party./,Did the older kids show the dances?,N,,0,19,dances,10,2,9,14,3,4,4,845,1563018672012,Y,5821,0
227,1,13,target,target_8,C,/+/The older kids * who were * showed all the dances * felt * amazed at the party./,Did the older kids show the dances?,N,,0,19,felt,11,2,10,14,4,1,1,1474,1563018673486,Y,5821,0
227,1,13,target,target_8,C,/+/The older kids * who were * showed all the dances * felt * amazed at the party./,Did the older kids show the dances?,N,,0,19,dances,12,2,9,14,3,4,4,1549,1563018675035,Y,5821,0
227,1,13,target,target_8,C,/+/The older kids * who were * showed all the dances * felt * amazed at the party./,Did the older kids show the dances?,N,,0,19,felt,13,2,10,14,4,1,1,351,1563018675386,Y,5821,0
227,1,13,target,target_8,C,/+/The older kids * who were * showed all the dances * felt * amazed at the party./,Did the older kids show the dances?,N,,0,19,amazed,14,2,11,14,5,1,4,570,1563018675956,Y,5821,0
227,1,13,target,target_8,C,/+/The older kids * who were * showed all the dances * felt * amazed at the party./,Did the older kids show the dances?,N,,0,19,at,15,2,12,14,5,2,4,832,1563018676788,Y,5821,0
227,1,13,target,target_8,C,/+/The older kids * who were * showed all the dances * felt * amazed at the party./,Did the older kids show the dances?,N,,0,19,the,16,2,13,14,5,3,4,461,1563018677249,Y,5821,0
227,1,13,target,target_8,C,/+/The older kids * who were * showed all the dances * felt * amazed at the party./,Did the older kids show the dances?,N,,0,19,party.,17,2,14,14,5,4,4,731,1563018677980,Y,5821,0
227,1,14,filler,filler_27,,/+/The letter that came this morning was from a friendly classmate./,Did the letter arrive this morning?,Y,,0,20,+,1,1,1,1,1,1,1,508,1563018684809,Y,2842,1
227,1,14,filler,filler_27,,/+/The letter that came this morning was from a friendly classmate./,Did the letter arrive this morning?,Y,,0,20,The,2,2,1,11,1,1,11,471,1563018685280,Y,2842,1
227,1,14,filler,filler_27,,/+/The letter that came this morning was from a friendly classmate./,Did the letter arrive this morning?,Y,,0,20,letter,3,2,2,11,1,2,11,764,1563018686044,Y,2842,1
227,1,14,filler,filler_27,,/+/The letter that came this morning was from a friendly classmate./,Did the letter arrive this morning?,Y,,0,20,that,4,2,3,11,1,3,11,627,1563018686671,Y,2842,1
227,1,14,filler,filler_27,,/+/The letter that came this morning was from a friendly classmate./,Did the letter arrive this morning?,Y,,0,20,came,5,2,4,11,1,4,11,587,1563018687258,Y,2842,1
227,1,14,filler,filler_27,,/+/The letter that came this morning was from a friendly classmate./,Did the letter arrive this morning?,Y,,0,20,this,6,2,5,11,1,5,11,2629,1563018689887,Y,2842,1
227,1,14,filler,filler_27,,/+/The letter that came this morning was from a friendly classmate./,Did the letter arrive this morning?,Y,,0,20,morning,7,2,6,11,1,6,11,703,1563018690590,Y,2842,1
227,1,14,filler,filler_27,,/+/The letter that came this morning was from a friendly classmate./,Did the letter arrive this morning?,Y,,0,20,was,8,2,7,11,1,7,11,626,1563018691216,Y,2842,1
227,1,14,filler,filler_27,,/+/The letter that came this morning was from a friendly classmate./,Did the letter arrive this morning?,Y,,0,20,from,9,2,8,11,1,8,11,444,1563018691660,Y,2842,1
227,1,14,filler,filler_27,,/+/The letter that came this morning was from a friendly classmate./,Did the letter arrive this morning?,Y,,0,20,a,10,2,9,11,1,9,11,438,1563018692098,Y,2842,1
227,1,14,filler,filler_27,,/+/The letter that came this morning was from a friendly classmate./,Did the letter arrive this morning?,Y,,0,20,friendly,11,2,10,11,1,10,11,2038,1563018694136,Y,2842,1
227,1,14,filler,filler_27,,/+/The letter that came this morning was from a friendly classmate./,Did the letter arrive this morning?,Y,,0,20,classmate.,12,2,11,11,1,11,11,2131,1563018696267,Y,2842,1
227,1,14,filler,filler_27,,/+/The letter that came this morning was from a friendly classmate./,Did the letter arrive this morning?,Y,,0,20,friendly,13,2,10,11,1,10,11,499,1563018696766,Y,2842,1
227,1,14,filler,filler_27,,/+/The letter that came this morning was from a friendly classmate./,Did the letter arrive this morning?,Y,,0,20,a,14,2,9,11,1,9,11,31,1563018696797,Y,2842,1
227,1,14,filler,filler_27,,/+/The letter that came this morning was from a friendly classmate./,Did the letter arrive this morning?,Y,,0,20,from,15,2,8,11,1,8,11,21,1563018696818,Y,2842,1
227,1,14,filler,filler_27,,/+/The letter that came this morning was from a friendly classmate./,Did the letter arrive this morning?,Y,,0,20,was,16,2,7,11,1,7,11,33,1563018696851,Y,2842,1
227,1,14,filler,filler_27,,/+/The letter that came this morning was from a friendly classmate./,Did the letter arrive this morning?,Y,,0,20,morning,17,2,6,11,1,6,11,33,1563018696884,Y,2842,1
227,1,14,filler,filler_27,,/+/The letter that came this morning was from a friendly classmate./,Did the letter arrive this morning?,Y,,0,20,this,18,2,5,11,1,5,11,33,1563018696917,Y,2842,1
227,1,14,filler,filler_27,,/+/The letter that came this morning was from a friendly classmate./,Did the letter arrive this morning?,Y,,0,20,came,19,2,4,11,1,4,11,33,1563018696950,Y,2842,1
227,1,14,filler,filler_27,,/+/The letter that came this morning was from a friendly classmate./,Did the letter arrive this morning?,Y,,0,20,that,20,2,3,11,1,3,11,33,1563018696983,Y,2842,1
227,1,14,filler,filler_27,,/+/The letter that came this morning was from a friendly classmate./,Did the letter arrive this morning?,Y,,0,20,letter,21,2,2,11,1,2,11,33,1563018697016,Y,2842,1
227,1,14,filler,filler_27,,/+/The letter that came this morning was from a friendly classmate./,Did the letter arrive this morning?,Y,,0,20,The,22,2,1,11,1,1,11,455,1563018697471,Y,2842,1
227,1,14,filler,filler_27,,/+/The letter that came this morning was from a friendly classmate./,Did the letter arrive this morning?,Y,,0,20,letter,23,2,2,11,1,2,11,311,1563018697782,Y,2842,1
227,1,14,filler,filler_27,,/+/The letter that came this morning was from a friendly classmate./,Did the letter arrive this morning?,Y,,0,20,that,24,2,3,11,1,3,11,333,1563018698115,Y,2842,1
227,1,14,filler,filler_27,,/+/The letter that came this morning was from a friendly classmate./,Did the letter arrive this morning?,Y,,0,20,came,25,2,4,11,1,4,11,334,1563018698449,Y,2842,1
227,1,14,filler,filler_27,,/+/The letter that came this morning was from a friendly classmate./,Did the letter arrive this morning?,Y,,0,20,this,26,2,5,11,1,5,11,333,1563018698782,Y,2842,1
227,1,14,filler,filler_27,,/+/The letter that came this morning was from a friendly classmate./,Did the letter arrive this morning?,Y,,0,20,morning,27,2,6,11,1,6,11,615,1563018699397,Y,2842,1
227,1,14,filler,filler_27,,/+/The letter that came this morning was from a friendly classmate./,Did the letter arrive this morning?,Y,,0,20,was,28,2,7,11,1,7,11,384,1563018699781,Y,2842,1
227,1,14,filler,filler_27,,/+/The letter that came this morning was from a friendly classmate./,Did the letter arrive this morning?,Y,,0,20,from,29,2,8,11,1,8,11,1148,1563018700929,Y,2842,1
227,1,14,filler,filler_27,,/+/The letter that came this morning was from a friendly classmate./,Did the letter arrive this morning?,Y,,0,20,was,30,2,7,11,1,7,11,342,1563018701271,Y,2842,1
227,1,14,filler,filler_27,,/+/The letter that came this morning was from a friendly classmate./,Did the letter arrive this morning?,Y,,0,20,from,31,2,8,11,1,8,11,318,1563018701589,Y,2842,1
227,1,14,filler,filler_27,,/+/The letter that came this morning was from a friendly classmate./,Did the letter arrive this morning?,Y,,0,20,a,32,2,9,11,1,9,11,366,1563018701955,Y,2842,1
227,1,14,filler,filler_27,,/+/The letter that came this morning was from a friendly classmate./,Did the letter arrive this morning?,Y,,0,20,friendly,33,2,10,11,1,10,11,396,1563018702351,Y,2842,1
227,1,14,filler,filler_27,,/+/The letter that came this morning was from a friendly classmate./,Did the letter arrive this morning?,Y,,0,20,classmate.,34,2,11,11,1,11,11,542,1563018702893,Y,2842,1
227,1,15,filler,filler_15,,/+/The book contained many useful information which could benefit the health./,Could the book be helpful for health?,Y,,0,21,+,1,1,1,1,1,1,1,562,1563018706815,Y,7850,1
227,1,15,filler,filler_15,,/+/The book contained many useful information which could benefit the health./,Could the book be helpful for health?,Y,,0,21,The,2,2,1,11,1,1,11,395,1563018707210,Y,7850,1
227,1,15,filler,filler_15,,/+/The book contained many useful information which could benefit the health./,Could the book be helpful for health?,Y,,0,21,book,3,2,2,11,1,2,11,385,1563018707595,Y,7850,1
227,1,15,filler,filler_15,,/+/The book contained many useful information which could benefit the health./,Could the book be helpful for health?,Y,,0,21,contained,4,2,3,11,1,3,11,432,1563018708027,Y,7850,1
227,1,15,filler,filler_15,,/+/The book contained many useful information which could benefit the health./,Could the book be helpful for health?,Y,,0,21,many,5,2,4,11,1,4,11,730,1563018708757,Y,7850,1
227,1,15,filler,filler_15,,/+/The book contained many useful information which could benefit the health./,Could the book be helpful for health?,Y,,0,21,useful,6,2,5,11,1,5,11,485,1563018709242,Y,7850,1
227,1,15,filler,filler_15,,/+/The book contained many useful information which could benefit the health./,Could the book be helpful for health?,Y,,0,21,information,7,2,6,11,1,6,11,421,1563018709663,Y,7850,1
227,1,15,filler,filler_15,,/+/The book contained many useful information which could benefit the health./,Could the book be helpful for health?,Y,,0,21,which,8,2,7,11,1,7,11,528,1563018710191,Y,7850,1
227,1,15,filler,filler_15,,/+/The book contained many useful information which could benefit the health./,Could the book be helpful for health?,Y,,0,21,could,9,2,8,11,1,8,11,494,1563018710685,Y,7850,1
227,1,15,filler,filler_15,,/+/The book contained many useful information which could benefit the health./,Could the book be helpful for health?,Y,,0,21,benefit,10,2,9,11,1,9,11,806,1563018711491,Y,7850,1
227,1,15,filler,filler_15,,/+/The book contained many useful information which could benefit the health./,Could the book be helpful for health?,Y,,0,21,the,11,2,10,11,1,10,11,380,1563018711871,Y,7850,1
227,1,15,filler,filler_15,,/+/The book contained many useful information which could benefit the health./,Could the book be helpful for health?,Y,,0,21,health.,12,2,11,11,1,11,11,1180,1563018713051,Y,7850,1
227,1,15,filler,filler_15,,/+/The book contained many useful information which could benefit the health./,Could the book be helpful for health?,Y,,0,21,the,13,2,10,11,1,10,11,404,1563018713455,Y,7850,1
227,1,15,filler,filler_15,,/+/The book contained many useful information which could benefit the health./,Could the book be helpful for health?,Y,,0,21,benefit,14,2,9,11,1,9,11,433,1563018713888,Y,7850,1
227,1,15,filler,filler_15,,/+/The book contained many useful information which could benefit the health./,Could the book be helpful for health?,Y,,0,21,the,15,2,10,11,1,10,11,263,1563018714151,Y,7850,1
227,1,15,filler,filler_15,,/+/The book contained many useful information which could benefit the health./,Could the book be helpful for health?,Y,,0,21,health.,16,2,11,11,1,11,11,189,1563018714340,Y,7850,1
227,1,16,target,target_6,G,/+/The six volunteers * taught the complicated procedure * became * very good students./,Did the volunteers teach the procedure?,N,,0,22,+,1,1,1,1,1,1,1,581,1563018723313,Y,2421,0
227,1,16,target,target_6,G,/+/The six volunteers * taught the complicated procedure * became * very good students./,Did the volunteers teach the procedure?,N,,0,22,The,2,2,1,11,1,1,3,491,1563018723804,Y,2421,0
227,1,16,target,target_6,G,/+/The six volunteers * taught the complicated procedure * became * very good students./,Did the volunteers teach the procedure?,N,,0,22,six,3,2,2,11,1,2,3,328,1563018724132,Y,2421,0
227,1,16,target,target_6,G,/+/The six volunteers * taught the complicated procedure * became * very good students./,Did the volunteers teach the procedure?,N,,0,22,volunteers,4,2,3,11,1,3,3,459,1563018724591,Y,2421,0
227,1,16,target,target_6,G,/+/The six volunteers * taught the complicated procedure * became * very good students./,Did the volunteers teach the procedure?,N,,0,22,taught,5,2,4,11,2,1,4,513,1563018725104,Y,2421,0
227,1,16,target,target_6,G,/+/The six volunteers * taught the complicated procedure * became * very good students./,Did the volunteers teach the procedure?,N,,0,22,the,6,2,5,11,2,2,4,518,1563018725622,Y,2421,0
227,1,16,target,target_6,G,/+/The six volunteers * taught the complicated procedure * became * very good students./,Did the volunteers teach the procedure?,N,,0,22,complicated,7,2,6,11,2,3,4,456,1563018726078,Y,2421,0
227,1,16,target,target_6,G,/+/The six volunteers * taught the complicated procedure * became * very good students./,Did the volunteers teach the procedure?,N,,0,22,procedure,8,2,7,11,2,4,4,482,1563018726560,Y,2421,0
227,1,16,target,target_6,G,/+/The six volunteers * taught the complicated procedure * became * very good students./,Did the volunteers teach the procedure?,N,,0,22,became,9,2,8,11,3,1,1,638,1563018727198,Y,2421,0
227,1,16,target,target_6,G,/+/The six volunteers * taught the complicated procedure * became * very good students./,Did the volunteers teach the procedure?,N,,0,22,very,10,2,9,11,4,1,3,401,1563018727599,Y,2421,0
227,1,16,target,target_6,G,/+/The six volunteers * taught the complicated procedure * became * very good students./,Did the volunteers teach the procedure?,N,,0,22,good,11,2,10,11,4,2,3,448,1563018728047,Y,2421,0
227,1,16,target,target_6,G,/+/The six volunteers * taught the complicated procedure * became * very good students./,Did the volunteers teach the procedure?,N,,0,22,students.,12,2,11,11,4,3,3,702,1563018728749,Y,2421,0
227,1,17,filler,filler_5,,/+/The author said that the new book was based on a real story./,Was the book entirely imaginary? ,N,,0,23,+,1,1,1,1,1,1,1,471,1563018732170,N,2438,1
227,1,17,filler,filler_5,,/+/The author said that the new book was based on a real story./,Was the book entirely imaginary? ,N,,0,23,The,2,2,1,13,1,1,13,343,1563018732513,N,2438,1
227,1,17,filler,filler_5,,/+/The author said that the new book was based on a real story./,Was the book entirely imaginary? ,N,,0,23,author,3,2,2,13,1,2,13,319,1563018732832,N,2438,1
227,1,17,filler,filler_5,,/+/The author said that the new book was based on a real story./,Was the book entirely imaginary? ,N,,0,23,said,4,2,3,13,1,3,13,350,1563018733182,N,2438,1
227,1,17,filler,filler_5,,/+/The author said that the new book was based on a real story./,Was the book entirely imaginary? ,N,,0,23,that,5,2,4,13,1,4,13,383,1563018733565,N,2438,1
227,1,17,filler,filler_5,,/+/The author said that the new book was based on a real story./,Was the book entirely imaginary? ,N,,0,23,the,6,2,5,13,1,5,13,336,1563018733901,N,2438,1
227,1,17,filler,filler_5,,/+/The author said that the new book was based on a real story./,Was the book entirely imaginary? ,N,,0,23,new,7,2,6,13,1,6,13,1223,1563018735124,N,2438,1
227,1,17,filler,filler_5,,/+/The author said that the new book was based on a real story./,Was the book entirely imaginary? ,N,,0,23,the,8,2,5,13,1,5,13,361,1563018735485,N,2438,1
227,1,17,filler,filler_5,,/+/The author said that the new book was based on a real story./,Was the book entirely imaginary? ,N,,0,23,new,9,2,6,13,1,6,13,244,1563018735729,N,2438,1
227,1,17,filler,filler_5,,/+/The author said that the new book was based on a real story./,Was the book entirely imaginary? ,N,,0,23,book,10,2,7,13,1,7,13,232,1563018735961,N,2438,1
227,1,17,filler,filler_5,,/+/The author said that the new book was based on a real story./,Was the book entirely imaginary? ,N,,0,23,was,11,2,8,13,1,8,13,203,1563018736164,N,2438,1
227,1,17,filler,filler_5,,/+/The author said that the new book was based on a real story./,Was the book entirely imaginary? ,N,,0,23,based,12,2,9,13,1,9,13,372,1563018736536,N,2438,1
227,1,17,filler,filler_5,,/+/The author said that the new book was based on a real story./,Was the book entirely imaginary? ,N,,0,23,on,13,2,10,13,1,10,13,586,1563018737122,N,2438,1
227,1,17,filler,filler_5,,/+/The author said that the new book was based on a real story./,Was the book entirely imaginary? ,N,,0,23,a,14,2,11,13,1,11,13,397,1563018737519,N,2438,1
227,1,17,filler,filler_5,,/+/The author said that the new book was based on a real story./,Was the book entirely imaginary? ,N,,0,23,real,15,2,12,13,1,12,13,574,1563018738093,N,2438,1
227,1,17,filler,filler_5,,/+/The author said that the new book was based on a real story./,Was the book entirely imaginary? ,N,,0,23,story.,16,2,13,13,1,13,13,457,1563018738550,N,2438,1
227,1,18,filler,filler_38,,/+/The gatekeeper refused to hand over the door key to the man./,Did the gatekeeper refuse to hand over the key?,Y,,0,24,+,1,1,1,1,1,1,1,502,1563018742003,N,4276,0
227,1,18,filler,filler_38,,/+/The gatekeeper refused to hand over the door key to the man./,Did the gatekeeper refuse to hand over the key?,Y,,0,24,The,2,2,1,12,1,1,12,315,1563018742318,N,4276,0
227,1,18,filler,filler_38,,/+/The gatekeeper refused to hand over the door key to the man./,Did the gatekeeper refuse to hand over the key?,Y,,0,24,gatekeeper,3,2,2,12,1,2,12,285,1563018742603,N,4276,0
227,1,18,filler,filler_38,,/+/The gatekeeper refused to hand over the door key to the man./,Did the gatekeeper refuse to hand over the key?,Y,,0,24,refused,4,2,3,12,1,3,12,737,1563018743340,N,4276,0
227,1,18,filler,filler_38,,/+/The gatekeeper refused to hand over the door key to the man./,Did the gatekeeper refuse to hand over the key?,Y,,0,24,gatekeeper,5,2,2,12,1,2,12,2640,1563018745980,N,4276,0
227,1,18,filler,filler_38,,/+/The gatekeeper refused to hand over the door key to the man./,Did the gatekeeper refuse to hand over the key?,Y,,0,24,refused,6,2,3,12,1,3,12,967,1563018746947,N,4276,0
227,1,18,filler,filler_38,,/+/The gatekeeper refused to hand over the door key to the man./,Did the gatekeeper refuse to hand over the key?,Y,,0,24,gatekeeper,7,2,2,12,1,2,12,1951,1563018748898,N,4276,0
227,1,18,filler,filler_38,,/+/The gatekeeper refused to hand over the door key to the man./,Did the gatekeeper refuse to hand over the key?,Y,,0,24,The,8,2,1,12,1,1,12,379,1563018749277,N,4276,0
227,1,18,filler,filler_38,,/+/The gatekeeper refused to hand over the door key to the man./,Did the gatekeeper refuse to hand over the key?,Y,,0,24,gatekeeper,9,2,2,12,1,2,12,1446,1563018750723,N,4276,0
227,1,18,filler,filler_38,,/+/The gatekeeper refused to hand over the door key to the man./,Did the gatekeeper refuse to hand over the key?,Y,,0,24,refused,10,2,3,12,1,3,12,438,1563018751161,N,4276,0
227,1,18,filler,filler_38,,/+/The gatekeeper refused to hand over the door key to the man./,Did the gatekeeper refuse to hand over the key?,Y,,0,24,to,11,2,4,12,1,4,12,558,1563018751719,N,4276,0
227,1,18,filler,filler_38,,/+/The gatekeeper refused to hand over the door key to the man./,Did the gatekeeper refuse to hand over the key?,Y,,0,24,hand,12,2,5,12,1,5,12,535,1563018752254,N,4276,0
227,1,18,filler,filler_38,,/+/The gatekeeper refused to hand over the door key to the man./,Did the gatekeeper refuse to hand over the key?,Y,,0,24,over,13,2,6,12,1,6,12,457,1563018752711,N,4276,0
227,1,18,filler,filler_38,,/+/The gatekeeper refused to hand over the door key to the man./,Did the gatekeeper refuse to hand over the key?,Y,,0,24,the,14,2,7,12,1,7,12,498,1563018753209,N,4276,0
227,1,18,filler,filler_38,,/+/The gatekeeper refused to hand over the door key to the man./,Did the gatekeeper refuse to hand over the key?,Y,,0,24,door,15,2,8,12,1,8,12,735,1563018753944,N,4276,0
227,1,18,filler,filler_38,,/+/The gatekeeper refused to hand over the door key to the man./,Did the gatekeeper refuse to hand over the key?,Y,,0,24,key,16,2,9,12,1,9,12,705,1563018754649,N,4276,0
227,1,18,filler,filler_38,,/+/The gatekeeper refused to hand over the door key to the man./,Did the gatekeeper refuse to hand over the key?,Y,,0,24,to,17,2,10,12,1,10,12,465,1563018755114,N,4276,0
227,1,18,filler,filler_38,,/+/The gatekeeper refused to hand over the door key to the man./,Did the gatekeeper refuse to hand over the key?,Y,,0,24,the,18,2,11,12,1,11,12,405,1563018755519,N,4276,0
227,1,18,filler,filler_38,,/+/The gatekeeper refused to hand over the door key to the man./,Did the gatekeeper refuse to hand over the key?,Y,,0,24,man.,19,2,12,12,1,12,12,450,1563018755969,N,4276,0
227,1,19,filler,filler_37,,/+/The tiger was caught after it ate two persons within one week./,Was the tiger caught?,Y,,0,25,+,1,1,1,1,1,1,1,484,1563018761242,N,2794,0
227,1,19,filler,filler_37,,/+/The tiger was caught after it ate two persons within one week./,Was the tiger caught?,Y,,0,25,The,2,2,1,12,1,1,12,812,1563018762054,N,2794,0
227,1,19,filler,filler_37,,/+/The tiger was caught after it ate two persons within one week./,Was the tiger caught?,Y,,0,25,tiger,3,2,2,12,1,2,12,725,1563018762779,N,2794,0
227,1,19,filler,filler_37,,/+/The tiger was caught after it ate two persons within one week./,Was the tiger caught?,Y,,0,25,was,4,2,3,12,1,3,12,874,1563018763653,N,2794,0
227,1,19,filler,filler_37,,/+/The tiger was caught after it ate two persons within one week./,Was the tiger caught?,Y,,0,25,caught,5,2,4,12,1,4,12,618,1563018764271,N,2794,0
227,1,19,filler,filler_37,,/+/The tiger was caught after it ate two persons within one week./,Was the tiger caught?,Y,,0,25,after,6,2,5,12,1,5,12,963,1563018765234,N,2794,0
227,1,19,filler,filler_37,,/+/The tiger was caught after it ate two persons within one week./,Was the tiger caught?,Y,,0,25,it,7,2,6,12,1,6,12,1875,1563018767109,N,2794,0
227,1,19,filler,filler_37,,/+/The tiger was caught after it ate two persons within one week./,Was the tiger caught?,Y,,0,25,ate,8,2,7,12,1,7,12,370,1563018767479,N,2794,0
227,1,19,filler,filler_37,,/+/The tiger was caught after it ate two persons within one week./,Was the tiger caught?,Y,,0,25,two,9,2,8,12,1,8,12,508,1563018767987,N,2794,0
227,1,19,filler,filler_37,,/+/The tiger was caught after it ate two persons within one week./,Was the tiger caught?,Y,,0,25,persons,10,2,9,12,1,9,12,548,1563018768535,N,2794,0
227,1,19,filler,filler_37,,/+/The tiger was caught after it ate two persons within one week./,Was the tiger caught?,Y,,0,25,within,11,2,10,12,1,10,12,504,1563018769039,N,2794,0
227,1,19,filler,filler_37,,/+/The tiger was caught after it ate two persons within one week./,Was the tiger caught?,Y,,0,25,one,12,2,11,12,1,11,12,440,1563018769479,N,2794,0
227,1,19,filler,filler_37,,/+/The tiger was caught after it ate two persons within one week./,Was the tiger caught?,Y,,0,25,week.,13,2,12,12,1,12,12,527,1563018770006,N,2794,0
227,1,20,target,target_7,C,/+/The old man * who was * advised on the special diet * has * not responded./,Did the old man advise on the diet?,N,,0,26,+,1,1,1,1,1,1,1,419,1563018773738,N,2654,1
227,1,20,target,target_7,C,/+/The old man * who was * advised on the special diet * has * not responded./,Did the old man advise on the diet?,N,,0,26,The,2,2,1,13,1,1,3,293,1563018774031,N,2654,1
227,1,20,target,target_7,C,/+/The old man * who was * advised on the special diet * has * not responded./,Did the old man advise on the diet?,N,,0,26,old,3,2,2,13,1,2,3,316,1563018774347,N,2654,1
227,1,20,target,target_7,C,/+/The old man * who was * advised on the special diet * has * not responded./,Did the old man advise on the diet?,N,,0,26,man,4,2,3,13,1,3,3,316,1563018774663,N,2654,1
227,1,20,target,target_7,C,/+/The old man * who was * advised on the special diet * has * not responded./,Did the old man advise on the diet?,N,,0,26,who,5,2,4,13,2,1,2,426,1563018775089,N,2654,1
227,1,20,target,target_7,C,/+/The old man * who was * advised on the special diet * has * not responded./,Did the old man advise on the diet?,N,,0,26,was,6,2,5,13,2,2,2,358,1563018775447,N,2654,1
227,1,20,target,target_7,C,/+/The old man * who was * advised on the special diet * has * not responded./,Did the old man advise on the diet?,N,,0,26,advised,7,2,6,13,3,1,5,366,1563018775813,N,2654,1
227,1,20,target,target_7,C,/+/The old man * who was * advised on the special diet * has * not responded./,Did the old man advise on the diet?,N,,0,26,on,8,2,7,13,3,2,5,383,1563018776196,N,2654,1
227,1,20,target,target_7,C,/+/The old man * who was * advised on the special diet * has * not responded./,Did the old man advise on the diet?,N,,0,26,the,9,2,8,13,3,3,5,368,1563018776564,N,2654,1
227,1,20,target,target_7,C,/+/The old man * who was * advised on the special diet * has * not responded./,Did the old man advise on the diet?,N,,0,26,special,10,2,9,13,3,4,5,414,1563018776978,N,2654,1
227,1,20,target,target_7,C,/+/The old man * who was * advised on the special diet * has * not responded./,Did the old man advise on the diet?,N,,0,26,diet,11,2,10,13,3,5,5,542,1563018777520,N,2654,1
227,1,20,target,target_7,C,/+/The old man * who was * advised on the special diet * has * not responded./,Did the old man advise on the diet?,N,,0,26,has,12,2,11,13,4,1,1,613,1563018778133,N,2654,1
227,1,20,target,target_7,C,/+/The old man * who was * advised on the special diet * has * not responded./,Did the old man advise on the diet?,N,,0,26,not,13,2,12,13,5,1,2,508,1563018778641,N,2654,1
227,1,20,target,target_7,C,/+/The old man * who was * advised on the special diet * has * not responded./,Did the old man advise on the diet?,N,,0,26,responded.,14,2,13,13,5,2,2,1327,1563018779968,N,2654,1
227,1,21,filler,filler_18,,/+/The actual price of the clothes was much higher than the man had expected./,Was the price of the clothes low?,N,,0,27,+,1,1,1,1,1,1,1,565,1563018783697,N,2140,1
227,1,21,filler,filler_18,,/+/The actual price of the clothes was much higher than the man had expected./,Was the price of the clothes low?,N,,0,27,The,2,2,1,14,1,1,14,6558,1563018790255,N,2140,1
227,1,21,filler,filler_18,,/+/The actual price of the clothes was much higher than the man had expected./,Was the price of the clothes low?,N,,0,27,actual,3,2,2,14,1,2,14,2849,1563018793104,N,2140,1
227,1,21,filler,filler_18,,/+/The actual price of the clothes was much higher than the man had expected./,Was the price of the clothes low?,N,,0,27,price,4,2,3,14,1,3,14,2715,1563018795819,N,2140,1
227,1,21,filler,filler_18,,/+/The actual price of the clothes was much higher than the man had expected./,Was the price of the clothes low?,N,,0,27,of,5,2,4,14,1,4,14,678,1563018796497,N,2140,1
227,1,21,filler,filler_18,,/+/The actual price of the clothes was much higher than the man had expected./,Was the price of the clothes low?,N,,0,27,the,6,2,5,14,1,5,14,420,1563018796917,N,2140,1
227,1,21,filler,filler_18,,/+/The actual price of the clothes was much higher than the man had expected./,Was the price of the clothes low?,N,,0,27,clothes,7,2,6,14,1,6,14,651,1563018797568,N,2140,1
227,1,21,filler,filler_18,,/+/The actual price of the clothes was much higher than the man had expected./,Was the price of the clothes low?,N,,0,27,was,8,2,7,14,1,7,14,511,1563018798079,N,2140,1
227,1,21,filler,filler_18,,/+/The actual price of the clothes was much higher than the man had expected./,Was the price of the clothes low?,N,,0,27,much,9,2,8,14,1,8,14,1406,1563018799485,N,2140,1
227,1,21,filler,filler_18,,/+/The actual price of the clothes was much higher than the man had expected./,Was the price of the clothes low?,N,,0,27,higher,10,2,9,14,1,9,14,935,1563018800420,N,2140,1
227,1,21,filler,filler_18,,/+/The actual price of the clothes was much higher than the man had expected./,Was the price of the clothes low?,N,,0,27,than,11,2,10,14,1,10,14,671,1563018801091,N,2140,1
227,1,21,filler,filler_18,,/+/The actual price of the clothes was much higher than the man had expected./,Was the price of the clothes low?,N,,0,27,the,12,2,11,14,1,11,14,525,1563018801616,N,2140,1
227,1,21,filler,filler_18,,/+/The actual price of the clothes was much higher than the man had expected./,Was the price of the clothes low?,N,,0,27,man,13,2,12,14,1,12,14,443,1563018802059,N,2140,1
227,1,21,filler,filler_18,,/+/The actual price of the clothes was much higher than the man had expected./,Was the price of the clothes low?,N,,0,27,had,14,2,13,14,1,13,14,636,1563018802695,N,2140,1
227,1,21,filler,filler_18,,/+/The actual price of the clothes was much higher than the man had expected./,Was the price of the clothes low?,N,,0,27,expected.,15,2,14,14,1,14,14,1008,1563018803703,N,2140,1
227,1,22,target,target_9,G,/+/The famous scientist * awarded an academic prize * expressed * his excitement./,Did the scientist award a prize？,N,,0,28,+,1,1,1,1,1,1,1,3074,1563018809437,Y,1941,0
227,1,22,target,target_9,G,/+/The famous scientist * awarded an academic prize * expressed * his excitement./,Did the scientist award a prize？,N,,0,28,The,2,2,1,10,1,1,3,530,1563018809967,Y,1941,0
227,1,22,target,target_9,G,/+/The famous scientist * awarded an academic prize * expressed * his excitement./,Did the scientist award a prize？,N,,0,28,famous,3,2,2,10,1,2,3,1406,1563018811373,Y,1941,0
227,1,22,target,target_9,G,/+/The famous scientist * awarded an academic prize * expressed * his excitement./,Did the scientist award a prize？,N,,0,28,scientist,4,2,3,10,1,3,3,608,1563018811981,Y,1941,0
227,1,22,target,target_9,G,/+/The famous scientist * awarded an academic prize * expressed * his excitement./,Did the scientist award a prize？,N,,0,28,awarded,5,2,4,10,2,1,4,509,1563018812490,Y,1941,0
227,1,22,target,target_9,G,/+/The famous scientist * awarded an academic prize * expressed * his excitement./,Did the scientist award a prize？,N,,0,28,an,6,2,5,10,2,2,4,532,1563018813022,Y,1941,0
227,1,22,target,target_9,G,/+/The famous scientist * awarded an academic prize * expressed * his excitement./,Did the scientist award a prize？,N,,0,28,academic,7,2,6,10,2,3,4,536,1563018813558,Y,1941,0
227,1,22,target,target_9,G,/+/The famous scientist * awarded an academic prize * expressed * his excitement./,Did the scientist award a prize？,N,,0,28,prize,8,2,7,10,2,4,4,455,1563018814013,Y,1941,0
227,1,22,target,target_9,G,/+/The famous scientist * awarded an academic prize * expressed * his excitement./,Did the scientist award a prize？,N,,0,28,expressed,9,2,8,10,3,1,1,607,1563018814620,Y,1941,0
227,1,22,target,target_9,G,/+/The famous scientist * awarded an academic prize * expressed * his excitement./,Did the scientist award a prize？,N,,0,28,his,10,2,9,10,4,1,2,633,1563018815253,Y,1941,0
227,1,22,target,target_9,G,/+/The famous scientist * awarded an academic prize * expressed * his excitement./,Did the scientist award a prize？,N,,0,28,excitement.,11,2,10,10,4,2,2,2101,1563018817354,Y,1941,0
227,1,23,filler,filler_2,,/+/The small town near Taipei was famous for its rich seafood resources./,Was the small town famous?,Y,,0,29,+,1,1,1,1,1,1,1,607,1563018820415,Y,4978,1
227,1,23,filler,filler_2,,/+/The small town near Taipei was famous for its rich seafood resources./,Was the small town famous?,Y,,0,29,The,2,2,1,12,1,1,12,538,1563018820953,Y,4978,1
227,1,23,filler,filler_2,,/+/The small town near Taipei was famous for its rich seafood resources./,Was the small town famous?,Y,,0,29,small,3,2,2,12,1,2,12,615,1563018821568,Y,4978,1
227,1,23,filler,filler_2,,/+/The small town near Taipei was famous for its rich seafood resources./,Was the small town famous?,Y,,0,29,town,4,2,3,12,1,3,12,616,1563018822184,Y,4978,1
227,1,23,filler,filler_2,,/+/The small town near Taipei was famous for its rich seafood resources./,Was the small town famous?,Y,,0,29,near,5,2,4,12,1,4,12,556,1563018822740,Y,4978,1
227,1,23,filler,filler_2,,/+/The small town near Taipei was famous for its rich seafood resources./,Was the small town famous?,Y,,0,29,Taipei,6,2,5,12,1,5,12,506,1563018823246,Y,4978,1
227,1,23,filler,filler_2,,/+/The small town near Taipei was famous for its rich seafood resources./,Was the small town famous?,Y,,0,29,was,7,2,6,12,1,6,12,500,1563018823746,Y,4978,1
227,1,23,filler,filler_2,,/+/The small town near Taipei was famous for its rich seafood resources./,Was the small town famous?,Y,,0,29,famous,8,2,7,12,1,7,12,439,1563018824185,Y,4978,1
227,1,23,filler,filler_2,,/+/The small town near Taipei was famous for its rich seafood resources./,Was the small town famous?,Y,,0,29,for,9,2,8,12,1,8,12,481,1563018824666,Y,4978,1
227,1,23,filler,filler_2,,/+/The small town near Taipei was famous for its rich seafood resources./,Was the small town famous?,Y,,0,29,its,10,2,9,12,1,9,12,469,1563018825135,Y,4978,1
227,1,23,filler,filler_2,,/+/The small town near Taipei was famous for its rich seafood resources./,Was the small town famous?,Y,,0,29,rich,11,2,10,12,1,10,12,498,1563018825633,Y,4978,1
