dat_Subject,list,display_order,type,id,con,fab_stimulus,fab_question,fab_key,fab_instruction,fab_feedback,dat_Trial,dat_Window,dat_WindowSequence,dat_LoopNumber,dat_LoopPosition,dat_LoopSum,dat_AreaNumber,dat_AreaPosition,dat_AreaSum,dat_ReactionTime,dat_Time,dat_Ans,dat_AnsReactionTime,dat_Accuracy
225,1,p1,practice,practice_1,,/+/The patient listened to the doctor's advice after he felt hopeless./,Did the patient follow the doctor?,Y,ins.jpg,1,1,+,1,1,1,1,1,1,1,12548,1563018650495,Y,11419,1
225,1,p1,practice,practice_1,,/+/The patient listened to the doctor's advice after he felt hopeless./,Did the patient follow the doctor?,Y,ins.jpg,1,1,The,2,2,1,11,1,1,11,159,1563018650655,Y,11419,1
225,1,p1,practice,practice_1,,/+/The patient listened to the doctor's advice after he felt hopeless./,Did the patient follow the doctor?,Y,ins.jpg,1,1,patient,3,2,2,11,1,2,11,208,1563018650863,Y,11419,1
225,1,p1,practice,practice_1,,/+/The patient listened to the doctor's advice after he felt hopeless./,Did the patient follow the doctor?,Y,ins.jpg,1,1,listened,4,2,3,11,1,3,11,223,1563018651086,Y,11419,1
225,1,p1,practice,practice_1,,/+/The patient listened to the doctor's advice after he felt hopeless./,Did the patient follow the doctor?,Y,ins.jpg,1,1,to,5,2,4,11,1,4,11,137,1563018651223,Y,11419,1
225,1,p1,practice,practice_1,,/+/The patient listened to the doctor's advice after he felt hopeless./,Did the patient follow the doctor?,Y,ins.jpg,1,1,the,6,2,5,11,1,5,11,224,1563018651447,Y,11419,1
225,1,p1,practice,practice_1,,/+/The patient listened to the doctor's advice after he felt hopeless./,Did the patient follow the doctor?,Y,ins.jpg,1,1,doctor's,7,2,6,11,1,6,11,200,1563018651647,Y,11419,1
225,1,p1,practice,practice_1,,/+/The patient listened to the doctor's advice after he felt hopeless./,Did the patient follow the doctor?,Y,ins.jpg,1,1,advice,8,2,7,11,1,7,11,224,1563018651871,Y,11419,1
225,1,p1,practice,practice_1,,/+/The patient listened to the doctor's advice after he felt hopeless./,Did the patient follow the doctor?,Y,ins.jpg,1,1,after,9,2,8,11,1,8,11,104,1563018651975,Y,11419,1
225,1,p1,practice,practice_1,,/+/The patient listened to the doctor's advice after he felt hopeless./,Did the patient follow the doctor?,Y,ins.jpg,1,1,he,10,2,9,11,1,9,11,439,1563018652414,Y,11419,1
225,1,p1,practice,practice_1,,/+/The patient listened to the doctor's advice after he felt hopeless./,Did the patient follow the doctor?,Y,ins.jpg,1,1,after,11,2,8,11,1,8,11,337,1563018652751,Y,11419,1
225,1,p1,practice,practice_1,,/+/The patient listened to the doctor's advice after he felt hopeless./,Did the patient follow the doctor?,Y,ins.jpg,1,1,advice,12,2,7,11,1,7,11,501,1563018653252,Y,11419,1
225,1,p1,practice,practice_1,,/+/The patient listened to the doctor's advice after he felt hopeless./,Did the patient follow the doctor?,Y,ins.jpg,1,1,doctor's,13,2,6,11,1,6,11,31,1563018653283,Y,11419,1
225,1,p1,practice,practice_1,,/+/The patient listened to the doctor's advice after he felt hopeless./,Did the patient follow the doctor?,Y,ins.jpg,1,1,the,14,2,5,11,1,5,11,31,1563018653314,Y,11419,1
225,1,p1,practice,practice_1,,/+/The patient listened to the doctor's advice after he felt hopeless./,Did the patient follow the doctor?,Y,ins.jpg,1,1,to,15,2,4,11,1,4,11,33,1563018653347,Y,11419,1
225,1,p1,practice,practice_1,,/+/The patient listened to the doctor's advice after he felt hopeless./,Did the patient follow the doctor?,Y,ins.jpg,1,1,listened,16,2,3,11,1,3,11,33,1563018653380,Y,11419,1
225,1,p1,practice,practice_1,,/+/The patient listened to the doctor's advice after he felt hopeless./,Did the patient follow the doctor?,Y,ins.jpg,1,1,patient,17,2,2,11,1,2,11,33,1563018653413,Y,11419,1
225,1,p1,practice,practice_1,,/+/The patient listened to the doctor's advice after he felt hopeless./,Did the patient follow the doctor?,Y,ins.jpg,1,1,The,18,2,1,11,1,1,11,4442,1563018657855,Y,11419,1
225,1,p1,practice,practice_1,,/+/The patient listened to the doctor's advice after he felt hopeless./,Did the patient follow the doctor?,Y,ins.jpg,1,1,patient,19,2,2,11,1,2,11,808,1563018658663,Y,11419,1
225,1,p1,practice,practice_1,,/+/The patient listened to the doctor's advice after he felt hopeless./,Did the patient follow the doctor?,Y,ins.jpg,1,1,The,20,2,1,11,1,1,11,152,1563018658815,Y,11419,1
225,1,p1,practice,practice_1,,/+/The patient listened to the doctor's advice after he felt hopeless./,Did the patient follow the doctor?,Y,ins.jpg,1,1,patient,21,2,2,11,1,2,11,27281,1563018686096,Y,11419,1
225,1,p1,practice,practice_1,,/+/The patient listened to the doctor's advice after he felt hopeless./,Did the patient follow the doctor?,Y,ins.jpg,1,1,The,22,2,1,11,1,1,11,759,1563018686855,Y,11419,1
225,1,p1,practice,practice_1,,/+/The patient listened to the doctor's advice after he felt hopeless./,Did the patient follow the doctor?,Y,ins.jpg,1,1,patient,23,2,2,11,1,2,11,536,1563018687391,Y,11419,1
225,1,p1,practice,practice_1,,/+/The patient listened to the doctor's advice after he felt hopeless./,Did the patient follow the doctor?,Y,ins.jpg,1,1,listened,24,2,3,11,1,3,11,817,1563018688208,Y,11419,1
225,1,p1,practice,practice_1,,/+/The patient listened to the doctor's advice after he felt hopeless./,Did the patient follow the doctor?,Y,ins.jpg,1,1,patient,25,2,2,11,1,2,11,168,1563018688376,Y,11419,1
225,1,p1,practice,practice_1,,/+/The patient listened to the doctor's advice after he felt hopeless./,Did the patient follow the doctor?,Y,ins.jpg,1,1,The,26,2,1,11,1,1,11,4064,1563018692440,Y,11419,1
225,1,p1,practice,practice_1,,/+/The patient listened to the doctor's advice after he felt hopeless./,Did the patient follow the doctor?,Y,ins.jpg,1,1,patient,27,2,2,11,1,2,11,264,1563018692704,Y,11419,1
225,1,p1,practice,practice_1,,/+/The patient listened to the doctor's advice after he felt hopeless./,Did the patient follow the doctor?,Y,ins.jpg,1,1,listened,28,2,3,11,1,3,11,1776,1563018694480,Y,11419,1
225,1,p1,practice,practice_1,,/+/The patient listened to the doctor's advice after he felt hopeless./,Did the patient follow the doctor?,Y,ins.jpg,1,1,to,29,2,4,11,1,4,11,503,1563018694983,Y,11419,1
225,1,p1,practice,practice_1,,/+/The patient listened to the doctor's advice after he felt hopeless./,Did the patient follow the doctor?,Y,ins.jpg,1,1,the,30,2,5,11,1,5,11,393,1563018695376,Y,11419,1
225,1,p1,practice,practice_1,,/+/The patient listened to the doctor's advice after he felt hopeless./,Did the patient follow the doctor?,Y,ins.jpg,1,1,doctor's,31,2,6,11,1,6,11,3408,1563018698784,Y,11419,1
225,1,p1,practice,practice_1,,/+/The patient listened to the doctor's advice after he felt hopeless./,Did the patient follow the doctor?,Y,ins.jpg,1,1,advice,32,2,7,11,1,7,11,352,1563018699136,Y,11419,1
225,1,p1,practice,practice_1,,/+/The patient listened to the doctor's advice after he felt hopeless./,Did the patient follow the doctor?,Y,ins.jpg,1,1,after,33,2,8,11,1,8,11,640,1563018699776,Y,11419,1
225,1,p1,practice,practice_1,,/+/The patient listened to the doctor's advice after he felt hopeless./,Did the patient follow the doctor?,Y,ins.jpg,1,1,advice,34,2,7,11,1,7,11,160,1563018699936,Y,11419,1
225,1,p1,practice,practice_1,,/+/The patient listened to the doctor's advice after he felt hopeless./,Did the patient follow the doctor?,Y,ins.jpg,1,1,doctor's,35,2,6,11,1,6,11,175,1563018700111,Y,11419,1
225,1,p1,practice,practice_1,,/+/The patient listened to the doctor's advice after he felt hopeless./,Did the patient follow the doctor?,Y,ins.jpg,1,1,the,36,2,5,11,1,5,11,153,1563018700264,Y,11419,1
225,1,p1,practice,practice_1,,/+/The patient listened to the doctor's advice after he felt hopeless./,Did the patient follow the doctor?,Y,ins.jpg,1,1,to,37,2,4,11,1,4,11,160,1563018700424,Y,11419,1
225,1,p1,practice,practice_1,,/+/The patient listened to the doctor's advice after he felt hopeless./,Did the patient follow the doctor?,Y,ins.jpg,1,1,listened,38,2,3,11,1,3,11,192,1563018700616,Y,11419,1
225,1,p1,practice,practice_1,,/+/The patient listened to the doctor's advice after he felt hopeless./,Did the patient follow the doctor?,Y,ins.jpg,1,1,patient,39,2,2,11,1,2,11,527,1563018701143,Y,11419,1
225,1,p1,practice,practice_1,,/+/The patient listened to the doctor's advice after he felt hopeless./,Did the patient follow the doctor?,Y,ins.jpg,1,1,The,40,2,1,11,1,1,11,488,1563018701632,Y,11419,1
225,1,p1,practice,practice_1,,/+/The patient listened to the doctor's advice after he felt hopeless./,Did the patient follow the doctor?,Y,ins.jpg,1,1,patient,41,2,2,11,1,2,11,200,1563018701832,Y,11419,1
225,1,p1,practice,practice_1,,/+/The patient listened to the doctor's advice after he felt hopeless./,Did the patient follow the doctor?,Y,ins.jpg,1,1,listened,42,2,3,11,1,3,11,159,1563018701991,Y,11419,1
225,1,p1,practice,practice_1,,/+/The patient listened to the doctor's advice after he felt hopeless./,Did the patient follow the doctor?,Y,ins.jpg,1,1,to,43,2,4,11,1,4,11,16985,1563018718976,Y,11419,1
225,1,p1,practice,practice_1,,/+/The patient listened to the doctor's advice after he felt hopeless./,Did the patient follow the doctor?,Y,ins.jpg,1,1,listened,44,2,3,11,1,3,11,200,1563018719176,Y,11419,1
225,1,p1,practice,practice_1,,/+/The patient listened to the doctor's advice after he felt hopeless./,Did the patient follow the doctor?,Y,ins.jpg,1,1,patient,45,2,2,11,1,2,11,168,1563018719344,Y,11419,1
225,1,p1,practice,practice_1,,/+/The patient listened to the doctor's advice after he felt hopeless./,Did the patient follow the doctor?,Y,ins.jpg,1,1,The,46,2,1,11,1,1,11,17263,1563018736607,Y,11419,1
225,1,p1,practice,practice_1,,/+/The patient listened to the doctor's advice after he felt hopeless./,Did the patient follow the doctor?,Y,ins.jpg,1,1,patient,47,2,2,11,1,2,11,727,1563018737335,Y,11419,1
225,1,p1,practice,practice_1,,/+/The patient listened to the doctor's advice after he felt hopeless./,Did the patient follow the doctor?,Y,ins.jpg,1,1,listened,48,2,3,11,1,3,11,463,1563018737799,Y,11419,1
225,1,p1,practice,practice_1,,/+/The patient listened to the doctor's advice after he felt hopeless./,Did the patient follow the doctor?,Y,ins.jpg,1,1,to,49,2,4,11,1,4,11,360,1563018738159,Y,11419,1
225,1,p1,practice,practice_1,,/+/The patient listened to the doctor's advice after he felt hopeless./,Did the patient follow the doctor?,Y,ins.jpg,1,1,the,50,2,5,11,1,5,11,351,1563018738511,Y,11419,1
225,1,p1,practice,practice_1,,/+/The patient listened to the doctor's advice after he felt hopeless./,Did the patient follow the doctor?,Y,ins.jpg,1,1,doctor's,51,2,6,11,1,6,11,536,1563018739047,Y,11419,1
225,1,p1,practice,practice_1,,/+/The patient listened to the doctor's advice after he felt hopeless./,Did the patient follow the doctor?,Y,ins.jpg,1,1,the,52,2,5,11,1,5,11,168,1563018739215,Y,11419,1
225,1,p1,practice,practice_1,,/+/The patient listened to the doctor's advice after he felt hopeless./,Did the patient follow the doctor?,Y,ins.jpg,1,1,to,53,2,4,11,1,4,11,160,1563018739375,Y,11419,1
225,1,p1,practice,practice_1,,/+/The patient listened to the doctor's advice after he felt hopeless./,Did the patient follow the doctor?,Y,ins.jpg,1,1,listened,54,2,3,11,1,3,11,152,1563018739527,Y,11419,1
225,1,p1,practice,practice_1,,/+/The patient listened to the doctor's advice after he felt hopeless./,Did the patient follow the doctor?,Y,ins.jpg,1,1,patient,55,2,2,11,1,2,11,168,1563018739695,Y,11419,1
225,1,p1,practice,practice_1,,/+/The patient listened to the doctor's advice after he felt hopeless./,Did the patient follow the doctor?,Y,ins.jpg,1,1,The,56,2,1,11,1,1,11,456,1563018740151,Y,11419,1
225,1,p1,practice,practice_1,,/+/The patient listened to the doctor's advice after he felt hopeless./,Did the patient follow the doctor?,Y,ins.jpg,1,1,patient,57,2,2,11,1,2,11,192,1563018740343,Y,11419,1
225,1,p1,practice,practice_1,,/+/The patient listened to the doctor's advice after he felt hopeless./,Did the patient follow the doctor?,Y,ins.jpg,1,1,listened,58,2,3,11,1,3,11,432,1563018740775,Y,11419,1
225,1,p1,practice,practice_1,,/+/The patient listened to the doctor's advice after he felt hopeless./,Did the patient follow the doctor?,Y,ins.jpg,1,1,to,59,2,4,11,1,4,11,369,1563018741144,Y,11419,1
225,1,p1,practice,practice_1,,/+/The patient listened to the doctor's advice after he felt hopeless./,Did the patient follow the doctor?,Y,ins.jpg,1,1,the,60,2,5,11,1,5,11,359,1563018741503,Y,11419,1
225,1,p1,practice,practice_1,,/+/The patient listened to the doctor's advice after he felt hopeless./,Did the patient follow the doctor?,Y,ins.jpg,1,1,doctor's,61,2,6,11,1,6,11,504,1563018742007,Y,11419,1
225,1,p1,practice,practice_1,,/+/The patient listened to the doctor's advice after he felt hopeless./,Did the patient follow the doctor?,Y,ins.jpg,1,1,advice,62,2,7,11,1,7,11,600,1563018742607,Y,11419,1
225,1,p1,practice,practice_1,,/+/The patient listened to the doctor's advice after he felt hopeless./,Did the patient follow the doctor?,Y,ins.jpg,1,1,after,63,2,8,11,1,8,11,936,1563018743543,Y,11419,1
225,1,p1,practice,practice_1,,/+/The patient listened to the doctor's advice after he felt hopeless./,Did the patient follow the doctor?,Y,ins.jpg,1,1,he,64,2,9,11,1,9,11,376,1563018743919,Y,11419,1
225,1,p1,practice,practice_1,,/+/The patient listened to the doctor's advice after he felt hopeless./,Did the patient follow the doctor?,Y,ins.jpg,1,1,felt,65,2,10,11,1,10,11,528,1563018744447,Y,11419,1
225,1,p1,practice,practice_1,,/+/The patient listened to the doctor's advice after he felt hopeless./,Did the patient follow the doctor?,Y,ins.jpg,1,1,hopeless.,66,2,11,11,1,11,11,1504,1563018745951,Y,11419,1
225,1,p1,practice,practice_1,,/+/The patient listened to the doctor's advice after he felt hopeless./,Did the patient follow the doctor?,Y,ins.jpg,1,1,felt,67,2,10,11,1,10,11,500,1563018746451,Y,11419,1
225,1,p1,practice,practice_1,,/+/The patient listened to the doctor's advice after he felt hopeless./,Did the patient follow the doctor?,Y,ins.jpg,1,1,he,68,2,9,11,1,9,11,33,1563018746484,Y,11419,1
225,1,p1,practice,practice_1,,/+/The patient listened to the doctor's advice after he felt hopeless./,Did the patient follow the doctor?,Y,ins.jpg,1,1,after,69,2,8,11,1,8,11,33,1563018746517,Y,11419,1
225,1,p1,practice,practice_1,,/+/The patient listened to the doctor's advice after he felt hopeless./,Did the patient follow the doctor?,Y,ins.jpg,1,1,advice,70,2,7,11,1,7,11,33,1563018746550,Y,11419,1
225,1,p1,practice,practice_1,,/+/The patient listened to the doctor's advice after he felt hopeless./,Did the patient follow the doctor?,Y,ins.jpg,1,1,doctor's,71,2,6,11,1,6,11,33,1563018746583,Y,11419,1
225,1,p1,practice,practice_1,,/+/The patient listened to the doctor's advice after he felt hopeless./,Did the patient follow the doctor?,Y,ins.jpg,1,1,the,72,2,5,11,1,5,11,33,1563018746616,Y,11419,1
225,1,p1,practice,practice_1,,/+/The patient listened to the doctor's advice after he felt hopeless./,Did the patient follow the doctor?,Y,ins.jpg,1,1,to,73,2,4,11,1,4,11,33,1563018746649,Y,11419,1
225,1,p1,practice,practice_1,,/+/The patient listened to the doctor's advice after he felt hopeless./,Did the patient follow the doctor?,Y,ins.jpg,1,1,listened,74,2,3,11,1,3,11,32,1563018746681,Y,11419,1
225,1,p1,practice,practice_1,,/+/The patient listened to the doctor's advice after he felt hopeless./,Did the patient follow the doctor?,Y,ins.jpg,1,1,patient,75,2,2,11,1,2,11,32,1563018746714,Y,11419,1
225,1,p1,practice,practice_1,,/+/The patient listened to the doctor's advice after he felt hopeless./,Did the patient follow the doctor?,Y,ins.jpg,1,1,The,76,2,1,11,1,1,11,396,1563018747111,Y,11419,1
225,1,p1,practice,practice_1,,/+/The patient listened to the doctor's advice after he felt hopeless./,Did the patient follow the doctor?,Y,ins.jpg,1,1,patient,77,2,2,11,1,2,11,232,1563018747343,Y,11419,1
225,1,p1,practice,practice_1,,/+/The patient listened to the doctor's advice after he felt hopeless./,Did the patient follow the doctor?,Y,ins.jpg,1,1,listened,78,2,3,11,1,3,11,96,1563018747439,Y,11419,1
225,1,p1,practice,practice_1,,/+/The patient listened to the doctor's advice after he felt hopeless./,Did the patient follow the doctor?,Y,ins.jpg,1,1,to,79,2,4,11,1,4,11,160,1563018747599,Y,11419,1
225,1,p1,practice,practice_1,,/+/The patient listened to the doctor's advice after he felt hopeless./,Did the patient follow the doctor?,Y,ins.jpg,1,1,the,80,2,5,11,1,5,11,455,1563018748054,Y,11419,1
225,1,p1,practice,practice_1,,/+/The patient listened to the doctor's advice after he felt hopeless./,Did the patient follow the doctor?,Y,ins.jpg,1,1,to,81,2,4,11,1,4,11,177,1563018748231,Y,11419,1
225,1,p1,practice,practice_1,,/+/The patient listened to the doctor's advice after he felt hopeless./,Did the patient follow the doctor?,Y,ins.jpg,1,1,listened,82,2,3,11,1,3,11,536,1563018748767,Y,11419,1
225,1,p1,practice,practice_1,,/+/The patient listened to the doctor's advice after he felt hopeless./,Did the patient follow the doctor?,Y,ins.jpg,1,1,to,83,2,4,11,1,4,11,175,1563018748942,Y,11419,1
225,1,p1,practice,practice_1,,/+/The patient listened to the doctor's advice after he felt hopeless./,Did the patient follow the doctor?,Y,ins.jpg,1,1,the,84,2,5,11,1,5,11,177,1563018749119,Y,11419,1
225,1,p1,practice,practice_1,,/+/The patient listened to the doctor's advice after he felt hopeless./,Did the patient follow the doctor?,Y,ins.jpg,1,1,doctor's,85,2,6,11,1,6,11,168,1563018749287,Y,11419,1
225,1,p1,practice,practice_1,,/+/The patient listened to the doctor's advice after he felt hopeless./,Did the patient follow the doctor?,Y,ins.jpg,1,1,advice,86,2,7,11,1,7,11,152,1563018749439,Y,11419,1
225,1,p1,practice,practice_1,,/+/The patient listened to the doctor's advice after he felt hopeless./,Did the patient follow the doctor?,Y,ins.jpg,1,1,after,87,2,8,11,1,8,11,152,1563018749591,Y,11419,1
225,1,p1,practice,practice_1,,/+/The patient listened to the doctor's advice after he felt hopeless./,Did the patient follow the doctor?,Y,ins.jpg,1,1,he,88,2,9,11,1,9,11,184,1563018749775,Y,11419,1
225,1,p1,practice,practice_1,,/+/The patient listened to the doctor's advice after he felt hopeless./,Did the patient follow the doctor?,Y,ins.jpg,1,1,felt,89,2,10,11,1,10,11,143,1563018749918,Y,11419,1
225,1,p1,practice,practice_1,,/+/The patient listened to the doctor's advice after he felt hopeless./,Did the patient follow the doctor?,Y,ins.jpg,1,1,hopeless.,90,2,11,11,1,11,11,200,1563018750118,Y,11419,1
225,1,p2,practice,practice_2,,/+/The visitors knew little about how the painting was created./,Did the visitors know how the painting was created?,N,,1,2,+,1,1,1,1,1,1,1,900,1563018762943,N,1579,1
225,1,p2,practice,practice_2,,/+/The visitors knew little about how the painting was created./,Did the visitors know how the painting was created?,N,,1,2,The,2,2,1,10,1,1,10,432,1563018763375,N,1579,1
225,1,p2,practice,practice_2,,/+/The visitors knew little about how the painting was created./,Did the visitors know how the painting was created?,N,,1,2,visitors,3,2,2,10,1,2,10,200,1563018763575,N,1579,1
225,1,p2,practice,practice_2,,/+/The visitors knew little about how the painting was created./,Did the visitors know how the painting was created?,N,,1,2,knew,4,2,3,10,1,3,10,384,1563018763959,N,1579,1
225,1,p2,practice,practice_2,,/+/The visitors knew little about how the painting was created./,Did the visitors know how the painting was created?,N,,1,2,little,5,2,4,10,1,4,10,231,1563018764190,N,1579,1
225,1,p2,practice,practice_2,,/+/The visitors knew little about how the painting was created./,Did the visitors know how the painting was created?,N,,1,2,about,6,2,5,10,1,5,10,425,1563018764615,N,1579,1
225,1,p2,practice,practice_2,,/+/The visitors knew little about how the painting was created./,Did the visitors know how the painting was created?,N,,1,2,little,7,2,4,10,1,4,10,176,1563018764791,N,1579,1
225,1,p2,practice,practice_2,,/+/The visitors knew little about how the painting was created./,Did the visitors know how the painting was created?,N,,1,2,knew,8,2,3,10,1,3,10,168,1563018764959,N,1579,1
225,1,p2,practice,practice_2,,/+/The visitors knew little about how the painting was created./,Did the visitors know how the painting was created?,N,,1,2,visitors,9,2,2,10,1,2,10,160,1563018765119,N,1579,1
225,1,p2,practice,practice_2,,/+/The visitors knew little about how the painting was created./,Did the visitors know how the painting was created?,N,,1,2,The,10,2,1,10,1,1,10,360,1563018765479,N,1579,1
225,1,p2,practice,practice_2,,/+/The visitors knew little about how the painting was created./,Did the visitors know how the painting was created?,N,,1,2,visitors,11,2,2,10,1,2,10,240,1563018765719,N,1579,1
225,1,p2,practice,practice_2,,/+/The visitors knew little about how the painting was created./,Did the visitors know how the painting was created?,N,,1,2,knew,12,2,3,10,1,3,10,1056,1563018766775,N,1579,1
225,1,p2,practice,practice_2,,/+/The visitors knew little about how the painting was created./,Did the visitors know how the painting was created?,N,,1,2,visitors,13,2,2,10,1,2,10,176,1563018766951,N,1579,1
225,1,p2,practice,practice_2,,/+/The visitors knew little about how the painting was created./,Did the visitors know how the painting was created?,N,,1,2,The,14,2,1,10,1,1,10,504,1563018767455,N,1579,1
225,1,p2,practice,practice_2,,/+/The visitors knew little about how the painting was created./,Did the visitors know how the painting was created?,N,,1,2,visitors,15,2,2,10,1,2,10,168,1563018767623,N,1579,1
225,1,p2,practice,practice_2,,/+/The visitors knew little about how the painting was created./,Did the visitors know how the painting was created?,N,,1,2,knew,16,2,3,10,1,3,10,408,1563018768031,N,1579,1
225,1,p2,practice,practice_2,,/+/The visitors knew little about how the painting was created./,Did the visitors know how the painting was created?,N,,1,2,little,17,2,4,10,1,4,10,271,1563018768302,N,1579,1
225,1,p2,practice,practice_2,,/+/The visitors knew little about how the painting was created./,Did the visitors know how the painting was created?,N,,1,2,about,18,2,5,10,1,5,10,1105,1563018769407,N,1579,1
225,1,p2,practice,practice_2,,/+/The visitors knew little about how the painting was created./,Did the visitors know how the painting was created?,N,,1,2,how,19,2,6,10,1,6,10,464,1563018769871,N,1579,1
225,1,p2,practice,practice_2,,/+/The visitors knew little about how the painting was created./,Did the visitors know how the painting was created?,N,,1,2,the,20,2,7,10,1,7,10,471,1563018770342,N,1579,1
225,1,p2,practice,practice_2,,/+/The visitors knew little about how the painting was created./,Did the visitors know how the painting was created?,N,,1,2,painting,21,2,8,10,1,8,10,1313,1563018771655,N,1579,1
225,1,p2,practice,practice_2,,/+/The visitors knew little about how the painting was created./,Did the visitors know how the painting was created?,N,,1,2,was,22,2,9,10,1,9,10,504,1563018772159,N,1579,1
225,1,p2,practice,practice_2,,/+/The visitors knew little about how the painting was created./,Did the visitors know how the painting was created?,N,,1,2,created.,23,2,10,10,1,10,10,384,1563018772543,N,1579,1
225,1,p3,practice,practice_3,,/+/The old lady lived further away from the city center./,Did the old lady live in the city center?,N,,1,3,+,1,1,1,1,1,1,1,814,1563018775438,N,3281,1
225,1,p3,practice,practice_3,,/+/The old lady lived further away from the city center./,Did the old lady live in the city center?,N,,1,3,The,2,2,1,10,1,1,10,409,1563018775847,N,3281,1
225,1,p3,practice,practice_3,,/+/The old lady lived further away from the city center./,Did the old lady live in the city center?,N,,1,3,old,3,2,2,10,1,2,10,1848,1563018777695,N,3281,1
225,1,p3,practice,practice_3,,/+/The old lady lived further away from the city center./,Did the old lady live in the city center?,N,,1,3,lady,4,2,3,10,1,3,10,952,1563018778647,N,3281,1
225,1,p3,practice,practice_3,,/+/The old lady lived further away from the city center./,Did the old lady live in the city center?,N,,1,3,lived,5,2,4,10,1,4,10,1968,1563018780615,N,3281,1
225,1,p3,practice,practice_3,,/+/The old lady lived further away from the city center./,Did the old lady live in the city center?,N,,1,3,lady,6,2,3,10,1,3,10,232,1563018780847,N,3281,1
225,1,p3,practice,practice_3,,/+/The old lady lived further away from the city center./,Did the old lady live in the city center?,N,,1,3,old,7,2,2,10,1,2,10,4344,1563018785191,N,3281,1
225,1,p3,practice,practice_3,,/+/The old lady lived further away from the city center./,Did the old lady live in the city center?,N,,1,3,The,8,2,1,10,1,1,10,831,1563018786022,N,3281,1
225,1,p3,practice,practice_3,,/+/The old lady lived further away from the city center./,Did the old lady live in the city center?,N,,1,3,old,9,2,2,10,1,2,10,223,1563018786246,N,3281,1
225,1,p3,practice,practice_3,,/+/The old lady lived further away from the city center./,Did the old lady live in the city center?,N,,1,3,lady,10,2,3,10,1,3,10,759,1563018787006,N,3281,1
225,1,p3,practice,practice_3,,/+/The old lady lived further away from the city center./,Did the old lady live in the city center?,N,,1,3,lived,11,2,4,10,1,4,10,655,1563018787662,N,3281,1
225,1,p3,practice,practice_3,,/+/The old lady lived further away from the city center./,Did the old lady live in the city center?,N,,1,3,further,12,2,5,10,1,5,10,1679,1563018789342,N,3281,1
225,1,p3,practice,practice_3,,/+/The old lady lived further away from the city center./,Did the old lady live in the city center?,N,,1,3,away,13,2,6,10,1,6,10,615,1563018789958,N,3281,1
225,1,p3,practice,practice_3,,/+/The old lady lived further away from the city center./,Did the old lady live in the city center?,N,,1,3,from,14,2,7,10,1,7,10,479,1563018790438,N,3281,1
225,1,p3,practice,practice_3,,/+/The old lady lived further away from the city center./,Did the old lady live in the city center?,N,,1,3,the,15,2,8,10,1,8,10,559,1563018790998,N,3281,1
225,1,p3,practice,practice_3,,/+/The old lady lived further away from the city center./,Did the old lady live in the city center?,N,,1,3,city,16,2,9,10,1,9,10,1871,1563018792870,N,3281,1
225,1,p3,practice,practice_3,,/+/The old lady lived further away from the city center./,Did the old lady live in the city center?,N,,1,3,the,17,2,8,10,1,8,10,199,1563018793070,N,3281,1
225,1,p3,practice,practice_3,,/+/The old lady lived further away from the city center./,Did the old lady live in the city center?,N,,1,3,from,18,2,7,10,1,7,10,175,1563018793246,N,3281,1
225,1,p3,practice,practice_3,,/+/The old lady lived further away from the city center./,Did the old lady live in the city center?,N,,1,3,away,19,2,6,10,1,6,10,159,1563018793406,N,3281,1
225,1,p3,practice,practice_3,,/+/The old lady lived further away from the city center./,Did the old lady live in the city center?,N,,1,3,further,20,2,5,10,1,5,10,175,1563018793582,N,3281,1
225,1,p3,practice,practice_3,,/+/The old lady lived further away from the city center./,Did the old lady live in the city center?,N,,1,3,lived,21,2,4,10,1,4,10,168,1563018793750,N,3281,1
225,1,p3,practice,practice_3,,/+/The old lady lived further away from the city center./,Did the old lady live in the city center?,N,,1,3,lady,22,2,3,10,1,3,10,143,1563018793894,N,3281,1
225,1,p3,practice,practice_3,,/+/The old lady lived further away from the city center./,Did the old lady live in the city center?,N,,1,3,old,23,2,2,10,1,2,10,391,1563018794286,N,3281,1
225,1,p3,practice,practice_3,,/+/The old lady lived further away from the city center./,Did the old lady live in the city center?,N,,1,3,The,24,2,1,10,1,1,10,591,1563018794878,N,3281,1
225,1,p3,practice,practice_3,,/+/The old lady lived further away from the city center./,Did the old lady live in the city center?,N,,1,3,old,25,2,2,10,1,2,10,177,1563018795055,N,3281,1
225,1,p3,practice,practice_3,,/+/The old lady lived further away from the city center./,Did the old lady live in the city center?,N,,1,3,lady,26,2,3,10,1,3,10,159,1563018795214,N,3281,1
225,1,p3,practice,practice_3,,/+/The old lady lived further away from the city center./,Did the old lady live in the city center?,N,,1,3,lived,27,2,4,10,1,4,10,463,1563018795678,N,3281,1
225,1,p3,practice,practice_3,,/+/The old lady lived further away from the city center./,Did the old lady live in the city center?,N,,1,3,further,28,2,5,10,1,5,10,944,1563018796622,N,3281,1
225,1,p3,practice,practice_3,,/+/The old lady lived further away from the city center./,Did the old lady live in the city center?,N,,1,3,away,29,2,6,10,1,6,10,408,1563018797030,N,3281,1
225,1,p3,practice,practice_3,,/+/The old lady lived further away from the city center./,Did the old lady live in the city center?,N,,1,3,from,30,2,7,10,1,7,10,167,1563018797198,N,3281,1
225,1,p3,practice,practice_3,,/+/The old lady lived further away from the city center./,Did the old lady live in the city center?,N,,1,3,the,31,2,8,10,1,8,10,783,1563018797982,N,3281,1
225,1,p3,practice,practice_3,,/+/The old lady lived further away from the city center./,Did the old lady live in the city center?,N,,1,3,city,32,2,9,10,1,9,10,559,1563018798542,N,3281,1
225,1,p3,practice,practice_3,,/+/The old lady lived further away from the city center./,Did the old lady live in the city center?,N,,1,3,center.,33,2,10,10,1,10,10,1511,1563018800054,N,3281,1
225,1,p4,practice,practice_4,,/+/The maid looked at the hostess with a nervous smile./,Did the maid feel nervous? ,Y,,1,4,+,1,1,1,1,1,1,1,1369,1563018805207,Y,2563,1
225,1,p4,practice,practice_4,,/+/The maid looked at the hostess with a nervous smile./,Did the maid feel nervous? ,Y,,1,4,The,2,2,1,10,1,1,10,1127,1563018806334,Y,2563,1
225,1,p4,practice,practice_4,,/+/The maid looked at the hostess with a nervous smile./,Did the maid feel nervous? ,Y,,1,4,maid,3,2,2,10,1,2,10,1385,1563018807719,Y,2563,1
225,1,p4,practice,practice_4,,/+/The maid looked at the hostess with a nervous smile./,Did the maid feel nervous? ,Y,,1,4,looked,4,2,3,10,1,3,10,872,1563018808591,Y,2563,1
225,1,p4,practice,practice_4,,/+/The maid looked at the hostess with a nervous smile./,Did the maid feel nervous? ,Y,,1,4,maid,5,2,2,10,1,2,10,200,1563018808791,Y,2563,1
225,1,p4,practice,practice_4,,/+/The maid looked at the hostess with a nervous smile./,Did the maid feel nervous? ,Y,,1,4,The,6,2,1,10,1,1,10,232,1563018809023,Y,2563,1
225,1,p4,practice,practice_4,,/+/The maid looked at the hostess with a nervous smile./,Did the maid feel nervous? ,Y,,1,4,maid,7,2,2,10,1,2,10,167,1563018809191,Y,2563,1
225,1,p4,practice,practice_4,,/+/The maid looked at the hostess with a nervous smile./,Did the maid feel nervous? ,Y,,1,4,looked,8,2,3,10,1,3,10,152,1563018809343,Y,2563,1
225,1,p4,practice,practice_4,,/+/The maid looked at the hostess with a nervous smile./,Did the maid feel nervous? ,Y,,1,4,at,9,2,4,10,1,4,10,496,1563018809839,Y,2563,1
225,1,p4,practice,practice_4,,/+/The maid looked at the hostess with a nervous smile./,Did the maid feel nervous? ,Y,,1,4,the,10,2,5,10,1,5,10,360,1563018810199,Y,2563,1
225,1,p4,practice,practice_4,,/+/The maid looked at the hostess with a nervous smile./,Did the maid feel nervous? ,Y,,1,4,hostess,11,2,6,10,1,6,10,2057,1563018812256,Y,2563,1
225,1,p4,practice,practice_4,,/+/The maid looked at the hostess with a nervous smile./,Did the maid feel nervous? ,Y,,1,4,with,12,2,7,10,1,7,10,535,1563018812791,Y,2563,1
225,1,p4,practice,practice_4,,/+/The maid looked at the hostess with a nervous smile./,Did the maid feel nervous? ,Y,,1,4,a,13,2,8,10,1,8,10,448,1563018813239,Y,2563,1
225,1,p4,practice,practice_4,,/+/The maid looked at the hostess with a nervous smile./,Did the maid feel nervous? ,Y,,1,4,nervous,14,2,9,10,1,9,10,1111,1563018814351,Y,2563,1
225,1,p4,practice,practice_4,,/+/The maid looked at the hostess with a nervous smile./,Did the maid feel nervous? ,Y,,1,4,a,15,2,8,10,1,8,10,167,1563018814519,Y,2563,1
225,1,p4,practice,practice_4,,/+/The maid looked at the hostess with a nervous smile./,Did the maid feel nervous? ,Y,,1,4,with,16,2,7,10,1,7,10,176,1563018814695,Y,2563,1
225,1,p4,practice,practice_4,,/+/The maid looked at the hostess with a nervous smile./,Did the maid feel nervous? ,Y,,1,4,hostess,17,2,6,10,1,6,10,152,1563018814847,Y,2563,1
225,1,p4,practice,practice_4,,/+/The maid looked at the hostess with a nervous smile./,Did the maid feel nervous? ,Y,,1,4,the,18,2,5,10,1,5,10,167,1563018815014,Y,2563,1
225,1,p4,practice,practice_4,,/+/The maid looked at the hostess with a nervous smile./,Did the maid feel nervous? ,Y,,1,4,at,19,2,4,10,1,4,10,169,1563018815183,Y,2563,1
225,1,p4,practice,practice_4,,/+/The maid looked at the hostess with a nervous smile./,Did the maid feel nervous? ,Y,,1,4,looked,20,2,3,10,1,3,10,152,1563018815335,Y,2563,1
225,1,p4,practice,practice_4,,/+/The maid looked at the hostess with a nervous smile./,Did the maid feel nervous? ,Y,,1,4,maid,21,2,2,10,1,2,10,792,1563018816127,Y,2563,1
225,1,p4,practice,practice_4,,/+/The maid looked at the hostess with a nervous smile./,Did the maid feel nervous? ,Y,,1,4,The,22,2,1,10,1,1,10,415,1563018816543,Y,2563,1
225,1,p4,practice,practice_4,,/+/The maid looked at the hostess with a nervous smile./,Did the maid feel nervous? ,Y,,1,4,maid,23,2,2,10,1,2,10,200,1563018816743,Y,2563,1
225,1,p4,practice,practice_4,,/+/The maid looked at the hostess with a nervous smile./,Did the maid feel nervous? ,Y,,1,4,looked,24,2,3,10,1,3,10,143,1563018816886,Y,2563,1
225,1,p4,practice,practice_4,,/+/The maid looked at the hostess with a nervous smile./,Did the maid feel nervous? ,Y,,1,4,at,25,2,4,10,1,4,10,545,1563018817431,Y,2563,1
225,1,p4,practice,practice_4,,/+/The maid looked at the hostess with a nervous smile./,Did the maid feel nervous? ,Y,,1,4,looked,26,2,3,10,1,3,10,231,1563018817663,Y,2563,1
225,1,p4,practice,practice_4,,/+/The maid looked at the hostess with a nervous smile./,Did the maid feel nervous? ,Y,,1,4,at,27,2,4,10,1,4,10,296,1563018817959,Y,2563,1
225,1,p4,practice,practice_4,,/+/The maid looked at the hostess with a nervous smile./,Did the maid feel nervous? ,Y,,1,4,the,28,2,5,10,1,5,10,352,1563018818311,Y,2563,1
225,1,p4,practice,practice_4,,/+/The maid looked at the hostess with a nervous smile./,Did the maid feel nervous? ,Y,,1,4,hostess,29,2,6,10,1,6,10,992,1563018819303,Y,2563,1
225,1,p4,practice,practice_4,,/+/The maid looked at the hostess with a nervous smile./,Did the maid feel nervous? ,Y,,1,4,with,30,2,7,10,1,7,10,295,1563018819599,Y,2563,1
225,1,p4,practice,practice_4,,/+/The maid looked at the hostess with a nervous smile./,Did the maid feel nervous? ,Y,,1,4,a,31,2,8,10,1,8,10,280,1563018819879,Y,2563,1
225,1,p4,practice,practice_4,,/+/The maid looked at the hostess with a nervous smile./,Did the maid feel nervous? ,Y,,1,4,nervous,32,2,9,10,1,9,10,1096,1563018820975,Y,2563,1
225,1,p4,practice,practice_4,,/+/The maid looked at the hostess with a nervous smile./,Did the maid feel nervous? ,Y,,1,4,smile.,33,2,10,10,1,10,10,880,1563018821855,Y,2563,1
225,1,p4,practice,practice_4,,/+/The maid looked at the hostess with a nervous smile./,Did the maid feel nervous? ,Y,,1,4,nervous,34,2,9,10,1,9,10,175,1563018822030,Y,2563,1
225,1,p4,practice,practice_4,,/+/The maid looked at the hostess with a nervous smile./,Did the maid feel nervous? ,Y,,1,4,a,35,2,8,10,1,8,10,161,1563018822191,Y,2563,1
225,1,p4,practice,practice_4,,/+/The maid looked at the hostess with a nervous smile./,Did the maid feel nervous? ,Y,,1,4,with,36,2,7,10,1,7,10,152,1563018822343,Y,2563,1
225,1,p4,practice,practice_4,,/+/The maid looked at the hostess with a nervous smile./,Did the maid feel nervous? ,Y,,1,4,hostess,37,2,6,10,1,6,10,160,1563018822503,Y,2563,1
225,1,p4,practice,practice_4,,/+/The maid looked at the hostess with a nervous smile./,Did the maid feel nervous? ,Y,,1,4,the,38,2,5,10,1,5,10,152,1563018822655,Y,2563,1
225,1,p4,practice,practice_4,,/+/The maid looked at the hostess with a nervous smile./,Did the maid feel nervous? ,Y,,1,4,at,39,2,4,10,1,4,10,144,1563018822799,Y,2563,1
225,1,p4,practice,practice_4,,/+/The maid looked at the hostess with a nervous smile./,Did the maid feel nervous? ,Y,,1,4,looked,40,2,3,10,1,3,10,215,1563018823014,Y,2563,1
225,1,p4,practice,practice_4,,/+/The maid looked at the hostess with a nervous smile./,Did the maid feel nervous? ,Y,,1,4,maid,41,2,2,10,1,2,10,385,1563018823399,Y,2563,1
225,1,p4,practice,practice_4,,/+/The maid looked at the hostess with a nervous smile./,Did the maid feel nervous? ,Y,,1,4,The,42,2,1,10,1,1,10,304,1563018823703,Y,2563,1
225,1,p4,practice,practice_4,,/+/The maid looked at the hostess with a nervous smile./,Did the maid feel nervous? ,Y,,1,4,maid,43,2,2,10,1,2,10,192,1563018823895,Y,2563,1
225,1,p4,practice,practice_4,,/+/The maid looked at the hostess with a nervous smile./,Did the maid feel nervous? ,Y,,1,4,looked,44,2,3,10,1,3,10,175,1563018824070,Y,2563,1
225,1,p4,practice,practice_4,,/+/The maid looked at the hostess with a nervous smile./,Did the maid feel nervous? ,Y,,1,4,at,45,2,4,10,1,4,10,169,1563018824239,Y,2563,1
225,1,p4,practice,practice_4,,/+/The maid looked at the hostess with a nervous smile./,Did the maid feel nervous? ,Y,,1,4,the,46,2,5,10,1,5,10,416,1563018824655,Y,2563,1
225,1,p4,practice,practice_4,,/+/The maid looked at the hostess with a nervous smile./,Did the maid feel nervous? ,Y,,1,4,hostess,47,2,6,10,1,6,10,168,1563018824823,Y,2563,1
225,1,p4,practice,practice_4,,/+/The maid looked at the hostess with a nervous smile./,Did the maid feel nervous? ,Y,,1,4,with,48,2,7,10,1,7,10,175,1563018824998,Y,2563,1
225,1,p4,practice,practice_4,,/+/The maid looked at the hostess with a nervous smile./,Did the maid feel nervous? ,Y,,1,4,a,49,2,8,10,1,8,10,720,1563018825719,Y,2563,1
225,1,p4,practice,practice_4,,/+/The maid looked at the hostess with a nervous smile./,Did the maid feel nervous? ,Y,,1,4,nervous,50,2,9,10,1,9,10,504,1563018826223,Y,2563,1
225,1,p4,practice,practice_4,,/+/The maid looked at the hostess with a nervous smile./,Did the maid feel nervous? ,Y,,1,4,smile.,51,2,10,10,1,10,10,464,1563018826687,Y,2563,1
225,1,p5,practice,practice_5,,/+/The young lady * sent a red rose * became * really embarrassed./,Did the lady send a red rose?,N,,1,5,+,1,1,1,1,1,1,1,662,1563018830415,Y,4427,0
225,1,p5,practice,practice_5,,/+/The young lady * sent a red rose * became * really embarrassed./,Did the lady send a red rose?,N,,1,5,The,2,2,1,10,1,1,3,328,1563018830743,Y,4427,0
225,1,p5,practice,practice_5,,/+/The young lady * sent a red rose * became * really embarrassed./,Did the lady send a red rose?,N,,1,5,young,3,2,2,10,1,2,3,152,1563018830895,Y,4427,0
225,1,p5,practice,practice_5,,/+/The young lady * sent a red rose * became * really embarrassed./,Did the lady send a red rose?,N,,1,5,lady,4,2,3,10,1,3,3,512,1563018831407,Y,4427,0
225,1,p5,practice,practice_5,,/+/The young lady * sent a red rose * became * really embarrassed./,Did the lady send a red rose?,N,,1,5,sent,5,2,4,10,2,1,4,183,1563018831591,Y,4427,0
225,1,p5,practice,practice_5,,/+/The young lady * sent a red rose * became * really embarrassed./,Did the lady send a red rose?,N,,1,5,a,6,2,5,10,2,2,4,607,1563018832198,Y,4427,0
225,1,p5,practice,practice_5,,/+/The young lady * sent a red rose * became * really embarrassed./,Did the lady send a red rose?,N,,1,5,red,7,2,6,10,2,3,4,345,1563018832543,Y,4427,0
225,1,p5,practice,practice_5,,/+/The young lady * sent a red rose * became * really embarrassed./,Did the lady send a red rose?,N,,1,5,rose,8,2,7,10,2,4,4,567,1563018833110,Y,4427,0
225,1,p5,practice,practice_5,,/+/The young lady * sent a red rose * became * really embarrassed./,Did the lady send a red rose?,N,,1,5,became,9,2,8,10,3,1,1,641,1563018833751,Y,4427,0
225,1,p5,practice,practice_5,,/+/The young lady * sent a red rose * became * really embarrassed./,Did the lady send a red rose?,N,,1,5,really,10,2,9,10,4,1,2,568,1563018834319,Y,4427,0
225,1,p5,practice,practice_5,,/+/The young lady * sent a red rose * became * really embarrassed./,Did the lady send a red rose?,N,,1,5,embarrassed.,11,2,10,10,4,2,2,1112,1563018835431,Y,4427,0
225,1,p5,practice,practice_5,,/+/The young lady * sent a red rose * became * really embarrassed./,Did the lady send a red rose?,N,,1,5,really,12,2,9,10,4,1,2,144,1563018835575,Y,4427,0
225,1,p5,practice,practice_5,,/+/The young lady * sent a red rose * became * really embarrassed./,Did the lady send a red rose?,N,,1,5,became,13,2,8,10,3,1,1,152,1563018835727,Y,4427,0
225,1,p5,practice,practice_5,,/+/The young lady * sent a red rose * became * really embarrassed./,Did the lady send a red rose?,N,,1,5,rose,14,2,7,10,2,4,4,160,1563018835887,Y,4427,0
225,1,p5,practice,practice_5,,/+/The young lady * sent a red rose * became * really embarrassed./,Did the lady send a red rose?,N,,1,5,red,15,2,6,10,2,3,4,152,1563018836039,Y,4427,0
225,1,p5,practice,practice_5,,/+/The young lady * sent a red rose * became * really embarrassed./,Did the lady send a red rose?,N,,1,5,a,16,2,5,10,2,2,4,175,1563018836214,Y,4427,0
225,1,p5,practice,practice_5,,/+/The young lady * sent a red rose * became * really embarrassed./,Did the lady send a red rose?,N,,1,5,sent,17,2,4,10,2,1,4,369,1563018836583,Y,4427,0
225,1,p5,practice,practice_5,,/+/The young lady * sent a red rose * became * really embarrassed./,Did the lady send a red rose?,N,,1,5,lady,18,2,3,10,1,3,3,392,1563018836975,Y,4427,0
225,1,p5,practice,practice_5,,/+/The young lady * sent a red rose * became * really embarrassed./,Did the lady send a red rose?,N,,1,5,young,19,2,2,10,1,2,3,768,1563018837743,Y,4427,0
225,1,p5,practice,practice_5,,/+/The young lady * sent a red rose * became * really embarrassed./,Did the lady send a red rose?,N,,1,5,The,20,2,1,10,1,1,3,328,1563018838071,Y,4427,0
225,1,p5,practice,practice_5,,/+/The young lady * sent a red rose * became * really embarrassed./,Did the lady send a red rose?,N,,1,5,young,21,2,2,10,1,2,3,127,1563018838198,Y,4427,0
225,1,p5,practice,practice_5,,/+/The young lady * sent a red rose * became * really embarrassed./,Did the lady send a red rose?,N,,1,5,lady,22,2,3,10,1,3,3,120,1563018838318,Y,4427,0
225,1,p5,practice,practice_5,,/+/The young lady * sent a red rose * became * really embarrassed./,Did the lady send a red rose?,N,,1,5,sent,23,2,4,10,2,1,4,185,1563018838503,Y,4427,0
225,1,p5,practice,practice_5,,/+/The young lady * sent a red rose * became * really embarrassed./,Did the lady send a red rose?,N,,1,5,a,24,2,5,10,2,2,4,272,1563018838775,Y,4427,0
225,1,p5,practice,practice_5,,/+/The young lady * sent a red rose * became * really embarrassed./,Did the lady send a red rose?,N,,1,5,red,25,2,6,10,2,3,4,208,1563018838983,Y,4427,0
225,1,p5,practice,practice_5,,/+/The young lady * sent a red rose * became * really embarrassed./,Did the lady send a red rose?,N,,1,5,rose,26,2,7,10,2,4,4,207,1563018839190,Y,4427,0
225,1,p5,practice,practice_5,,/+/The young lady * sent a red rose * became * really embarrassed./,Did the lady send a red rose?,N,,1,5,became,27,2,8,10,3,1,1,152,1563018839342,Y,4427,0
225,1,p5,practice,practice_5,,/+/The young lady * sent a red rose * became * really embarrassed./,Did the lady send a red rose?,N,,1,5,really,28,2,9,10,4,1,2,249,1563018839591,Y,4427,0
225,1,p5,practice,practice_5,,/+/The young lady * sent a red rose * became * really embarrassed./,Did the lady send a red rose?,N,,1,5,embarrassed.,29,2,10,10,4,2,2,671,1563018840262,Y,4427,0
225,1,p5,practice,practice_5,,/+/The young lady * sent a red rose * became * really embarrassed./,Did the lady send a red rose?,N,,1,5,really,30,2,9,10,4,1,2,177,1563018840439,Y,4427,0
225,1,p5,practice,practice_5,,/+/The young lady * sent a red rose * became * really embarrassed./,Did the lady send a red rose?,N,,1,5,became,31,2,8,10,3,1,1,600,1563018841039,Y,4427,0
225,1,p5,practice,practice_5,,/+/The young lady * sent a red rose * became * really embarrassed./,Did the lady send a red rose?,N,,1,5,really,32,2,9,10,4,1,2,760,1563018841799,Y,4427,0
225,1,p5,practice,practice_5,,/+/The young lady * sent a red rose * became * really embarrassed./,Did the lady send a red rose?,N,,1,5,became,33,2,8,10,3,1,1,272,1563018842071,Y,4427,0
225,1,p5,practice,practice_5,,/+/The young lady * sent a red rose * became * really embarrassed./,Did the lady send a red rose?,N,,1,5,really,34,2,9,10,4,1,2,207,1563018842278,Y,4427,0
225,1,p5,practice,practice_5,,/+/The young lady * sent a red rose * became * really embarrassed./,Did the lady send a red rose?,N,,1,5,embarrassed.,35,2,10,10,4,2,2,753,1563018843031,Y,4427,0
225,1,p6,practice,practice_6,,/+/The busy workers * who were * offered a delicious pizza * felt * not so hungry./,Did someone offer the workers a pizza?,Y,,1,6,+,1,1,1,1,1,1,1,90672,1563018946223,Y,4996,1
225,1,p6,practice,practice_6,,/+/The busy workers * who were * offered a delicious pizza * felt * not so hungry./,Did someone offer the workers a pizza?,Y,,1,6,The,2,2,1,13,1,1,3,510,1563018946734,Y,4996,1
225,1,p6,practice,practice_6,,/+/The busy workers * who were * offered a delicious pizza * felt * not so hungry./,Did someone offer the workers a pizza?,Y,,1,6,busy,3,2,2,13,1,2,3,513,1563018947247,Y,4996,1
225,1,p6,practice,practice_6,,/+/The busy workers * who were * offered a delicious pizza * felt * not so hungry./,Did someone offer the workers a pizza?,Y,,1,6,workers,4,2,3,13,1,3,3,783,1563018948031,Y,4996,1
225,1,p6,practice,practice_6,,/+/The busy workers * who were * offered a delicious pizza * felt * not so hungry./,Did someone offer the workers a pizza?,Y,,1,6,who,5,2,4,13,2,1,2,367,1563018948399,Y,4996,1
225,1,p6,practice,practice_6,,/+/The busy workers * who were * offered a delicious pizza * felt * not so hungry./,Did someone offer the workers a pizza?,Y,,1,6,were,6,2,5,13,2,2,2,2510,1563018950910,Y,4996,1
225,1,p6,practice,practice_6,,/+/The busy workers * who were * offered a delicious pizza * felt * not so hungry./,Did someone offer the workers a pizza?,Y,,1,6,who,7,2,4,13,2,1,2,168,1563018951079,Y,4996,1
225,1,p6,practice,practice_6,,/+/The busy workers * who were * offered a delicious pizza * felt * not so hungry./,Did someone offer the workers a pizza?,Y,,1,6,workers,8,2,3,13,1,3,3,143,1563018951223,Y,4996,1
225,1,p6,practice,practice_6,,/+/The busy workers * who were * offered a delicious pizza * felt * not so hungry./,Did someone offer the workers a pizza?,Y,,1,6,busy,9,2,2,13,1,2,3,409,1563018951632,Y,4996,1
225,1,p6,practice,practice_6,,/+/The busy workers * who were * offered a delicious pizza * felt * not so hungry./,Did someone offer the workers a pizza?,Y,,1,6,The,10,2,1,13,1,1,3,1583,1563018953215,Y,4996,1
225,1,p6,practice,practice_6,,/+/The busy workers * who were * offered a delicious pizza * felt * not so hungry./,Did someone offer the workers a pizza?,Y,,1,6,busy,11,2,2,13,1,2,3,248,1563018953463,Y,4996,1
225,1,p6,practice,practice_6,,/+/The busy workers * who were * offered a delicious pizza * felt * not so hungry./,Did someone offer the workers a pizza?,Y,,1,6,workers,12,2,3,13,1,3,3,184,1563018953647,Y,4996,1
225,1,p6,practice,practice_6,,/+/The busy workers * who were * offered a delicious pizza * felt * not so hungry./,Did someone offer the workers a pizza?,Y,,1,6,who,13,2,4,13,2,1,2,368,1563018954015,Y,4996,1
225,1,p6,practice,practice_6,,/+/The busy workers * who were * offered a delicious pizza * felt * not so hungry./,Did someone offer the workers a pizza?,Y,,1,6,were,14,2,5,13,2,2,2,472,1563018954487,Y,4996,1
225,1,p6,practice,practice_6,,/+/The busy workers * who were * offered a delicious pizza * felt * not so hungry./,Did someone offer the workers a pizza?,Y,,1,6,offered,15,2,6,13,3,1,4,744,1563018955231,Y,4996,1
225,1,p6,practice,practice_6,,/+/The busy workers * who were * offered a delicious pizza * felt * not so hungry./,Did someone offer the workers a pizza?,Y,,1,6,a,16,2,7,13,3,2,4,416,1563018955647,Y,4996,1
225,1,p6,practice,practice_6,,/+/The busy workers * who were * offered a delicious pizza * felt * not so hungry./,Did someone offer the workers a pizza?,Y,,1,6,delicious,17,2,8,13,3,3,4,1040,1563018956687,Y,4996,1
225,1,p6,practice,practice_6,,/+/The busy workers * who were * offered a delicious pizza * felt * not so hungry./,Did someone offer the workers a pizza?,Y,,1,6,pizza,18,2,9,13,3,4,4,680,1563018957367,Y,4996,1
225,1,p6,practice,practice_6,,/+/The busy workers * who were * offered a delicious pizza * felt * not so hungry./,Did someone offer the workers a pizza?,Y,,1,6,felt,19,2,10,13,4,1,1,864,1563018958231,Y,4996,1
225,1,p6,practice,practice_6,,/+/The busy workers * who were * offered a delicious pizza * felt * not so hungry./,Did someone offer the workers a pizza?,Y,,1,6,not,20,2,11,13,5,1,3,496,1563018958727,Y,4996,1
225,1,p6,practice,practice_6,,/+/The busy workers * who were * offered a delicious pizza * felt * not so hungry./,Did someone offer the workers a pizza?,Y,,1,6,so,21,2,12,13,5,2,3,424,1563018959151,Y,4996,1
225,1,p6,practice,practice_6,,/+/The busy workers * who were * offered a delicious pizza * felt * not so hungry./,Did someone offer the workers a pizza?,Y,,1,6,hungry.,22,2,13,13,5,3,3,2320,1563018961471,Y,4996,1
225,1,p6,practice,practice_6,,/+/The busy workers * who were * offered a delicious pizza * felt * not so hungry./,Did someone offer the workers a pizza?,Y,,1,6,so,23,2,12,13,5,2,3,216,1563018961687,Y,4996,1
225,1,p6,practice,practice_6,,/+/The busy workers * who were * offered a delicious pizza * felt * not so hungry./,Did someone offer the workers a pizza?,Y,,1,6,not,24,2,11,13,5,1,3,168,1563018961855,Y,4996,1
225,1,p6,practice,practice_6,,/+/The busy workers * who were * offered a delicious pizza * felt * not so hungry./,Did someone offer the workers a pizza?,Y,,1,6,felt,25,2,10,13,4,1,1,151,1563018962006,Y,4996,1
225,1,p6,practice,practice_6,,/+/The busy workers * who were * offered a delicious pizza * felt * not so hungry./,Did someone offer the workers a pizza?,Y,,1,6,pizza,26,2,9,13,3,4,4,161,1563018962167,Y,4996,1
225,1,p6,practice,practice_6,,/+/The busy workers * who were * offered a delicious pizza * felt * not so hungry./,Did someone offer the workers a pizza?,Y,,1,6,delicious,27,2,8,13,3,3,4,152,1563018962319,Y,4996,1
225,1,p6,practice,practice_6,,/+/The busy workers * who were * offered a delicious pizza * felt * not so hungry./,Did someone offer the workers a pizza?,Y,,1,6,a,28,2,7,13,3,2,4,152,1563018962471,Y,4996,1
225,1,p6,practice,practice_6,,/+/The busy workers * who were * offered a delicious pizza * felt * not so hungry./,Did someone offer the workers a pizza?,Y,,1,6,offered,29,2,6,13,3,1,4,144,1563018962615,Y,4996,1
225,1,p6,practice,practice_6,,/+/The busy workers * who were * offered a delicious pizza * felt * not so hungry./,Did someone offer the workers a pizza?,Y,,1,6,were,30,2,5,13,2,2,2,160,1563018962775,Y,4996,1
225,1,p6,practice,practice_6,,/+/The busy workers * who were * offered a delicious pizza * felt * not so hungry./,Did someone offer the workers a pizza?,Y,,1,6,who,31,2,4,13,2,1,2,168,1563018962943,Y,4996,1
225,1,p6,practice,practice_6,,/+/The busy workers * who were * offered a delicious pizza * felt * not so hungry./,Did someone offer the workers a pizza?,Y,,1,6,workers,32,2,3,13,1,3,3,159,1563018963102,Y,4996,1
225,1,p6,practice,practice_6,,/+/The busy workers * who were * offered a delicious pizza * felt * not so hungry./,Did someone offer the workers a pizza?,Y,,1,6,busy,33,2,2,13,1,2,3,521,1563018963623,Y,4996,1
225,1,p6,practice,practice_6,,/+/The busy workers * who were * offered a delicious pizza * felt * not so hungry./,Did someone offer the workers a pizza?,Y,,1,6,The,34,2,1,13,1,1,3,1600,1563018965223,Y,4996,1
225,1,p6,practice,practice_6,,/+/The busy workers * who were * offered a delicious pizza * felt * not so hungry./,Did someone offer the workers a pizza?,Y,,1,6,busy,35,2,2,13,1,2,3,224,1563018965447,Y,4996,1
225,1,p6,practice,practice_6,,/+/The busy workers * who were * offered a delicious pizza * felt * not so hungry./,Did someone offer the workers a pizza?,Y,,1,6,workers,36,2,3,13,1,3,3,639,1563018966086,Y,4996,1
225,1,p6,practice,practice_6,,/+/The busy workers * who were * offered a delicious pizza * felt * not so hungry./,Did someone offer the workers a pizza?,Y,,1,6,who,37,2,4,13,2,1,2,345,1563018966431,Y,4996,1
225,1,p6,practice,practice_6,,/+/The busy workers * who were * offered a delicious pizza * felt * not so hungry./,Did someone offer the workers a pizza?,Y,,1,6,were,38,2,5,13,2,2,2,328,1563018966759,Y,4996,1
225,1,p6,practice,practice_6,,/+/The busy workers * who were * offered a delicious pizza * felt * not so hungry./,Did someone offer the workers a pizza?,Y,,1,6,offered,39,2,6,13,3,1,4,1976,1563018968735,Y,4996,1
225,1,p6,practice,practice_6,,/+/The busy workers * who were * offered a delicious pizza * felt * not so hungry./,Did someone offer the workers a pizza?,Y,,1,6,a,40,2,7,13,3,2,4,1936,1563018970671,Y,4996,1
225,1,p6,practice,practice_6,,/+/The busy workers * who were * offered a delicious pizza * felt * not so hungry./,Did someone offer the workers a pizza?,Y,,1,6,offered,41,2,6,13,3,1,4,168,1563018970839,Y,4996,1
225,1,p6,practice,practice_6,,/+/The busy workers * who were * offered a delicious pizza * felt * not so hungry./,Did someone offer the workers a pizza?,Y,,1,6,were,42,2,5,13,2,2,2,144,1563018970983,Y,4996,1
225,1,p6,practice,practice_6,,/+/The busy workers * who were * offered a delicious pizza * felt * not so hungry./,Did someone offer the workers a pizza?,Y,,1,6,who,43,2,4,13,2,1,2,143,1563018971126,Y,4996,1
225,1,p6,practice,practice_6,,/+/The busy workers * who were * offered a delicious pizza * felt * not so hungry./,Did someone offer the workers a pizza?,Y,,1,6,workers,44,2,3,13,1,3,3,161,1563018971287,Y,4996,1
225,1,p6,practice,practice_6,,/+/The busy workers * who were * offered a delicious pizza * felt * not so hungry./,Did someone offer the workers a pizza?,Y,,1,6,busy,45,2,2,13,1,2,3,152,1563018971439,Y,4996,1
225,1,p6,practice,practice_6,,/+/The busy workers * who were * offered a delicious pizza * felt * not so hungry./,Did someone offer the workers a pizza?,Y,,1,6,The,46,2,1,13,1,1,3,1128,1563018972567,Y,4996,1
225,1,p6,practice,practice_6,,/+/The busy workers * who were * offered a delicious pizza * felt * not so hungry./,Did someone offer the workers a pizza?,Y,,1,6,busy,47,2,2,13,1,2,3,216,1563018972783,Y,4996,1
225,1,p6,practice,practice_6,,/+/The busy workers * who were * offered a delicious pizza * felt * not so hungry./,Did someone offer the workers a pizza?,Y,,1,6,workers,48,2,3,13,1,3,3,176,1563018972959,Y,4996,1
225,1,p6,practice,practice_6,,/+/The busy workers * who were * offered a delicious pizza * felt * not so hungry./,Did someone offer the workers a pizza?,Y,,1,6,who,49,2,4,13,2,1,2,151,1563018973110,Y,4996,1
225,1,p6,practice,practice_6,,/+/The busy workers * who were * offered a delicious pizza * felt * not so hungry./,Did someone offer the workers a pizza?,Y,,1,6,were,50,2,5,13,2,2,2,161,1563018973271,Y,4996,1
225,1,p6,practice,practice_6,,/+/The busy workers * who were * offered a delicious pizza * felt * not so hungry./,Did someone offer the workers a pizza?,Y,,1,6,offered,51,2,6,13,3,1,4,992,1563018974263,Y,4996,1
225,1,p6,practice,practice_6,,/+/The busy workers * who were * offered a delicious pizza * felt * not so hungry./,Did someone offer the workers a pizza?,Y,,1,6,a,52,2,7,13,3,2,4,496,1563018974759,Y,4996,1
225,1,p6,practice,practice_6,,/+/The busy workers * who were * offered a delicious pizza * felt * not so hungry./,Did someone offer the workers a pizza?,Y,,1,6,delicious,53,2,8,13,3,3,4,1912,1563018976671,Y,4996,1
225,1,p6,practice,practice_6,,/+/The busy workers * who were * offered a delicious pizza * felt * not so hungry./,Did someone offer the workers a pizza?,Y,,1,6,pizza,54,2,9,13,3,4,4,408,1563018977079,Y,4996,1
225,1,p6,practice,practice_6,,/+/The busy workers * who were * offered a delicious pizza * felt * not so hungry./,Did someone offer the workers a pizza?,Y,,1,6,felt,55,2,10,13,4,1,1,392,1563018977471,Y,4996,1
225,1,p6,practice,practice_6,,/+/The busy workers * who were * offered a delicious pizza * felt * not so hungry./,Did someone offer the workers a pizza?,Y,,1,6,not,56,2,11,13,5,1,3,408,1563018977879,Y,4996,1
225,1,p6,practice,practice_6,,/+/The busy workers * who were * offered a delicious pizza * felt * not so hungry./,Did someone offer the workers a pizza?,Y,,1,6,so,57,2,12,13,5,2,3,472,1563018978351,Y,4996,1
225,1,p6,practice,practice_6,,/+/The busy workers * who were * offered a delicious pizza * felt * not so hungry./,Did someone offer the workers a pizza?,Y,,1,6,hungry.,58,2,13,13,5,3,3,1576,1563018979927,Y,4996,1
225,1,p6,practice,practice_6,,/+/The busy workers * who were * offered a delicious pizza * felt * not so hungry./,Did someone offer the workers a pizza?,Y,,1,6,so,59,2,12,13,5,2,3,160,1563018980087,Y,4996,1
225,1,p6,practice,practice_6,,/+/The busy workers * who were * offered a delicious pizza * felt * not so hungry./,Did someone offer the workers a pizza?,Y,,1,6,not,60,2,11,13,5,1,3,159,1563018980246,Y,4996,1
225,1,p6,practice,practice_6,,/+/The busy workers * who were * offered a delicious pizza * felt * not so hungry./,Did someone offer the workers a pizza?,Y,,1,6,felt,61,2,10,13,4,1,1,500,1563018980746,Y,4996,1
225,1,p6,practice,practice_6,,/+/The busy workers * who were * offered a delicious pizza * felt * not so hungry./,Did someone offer the workers a pizza?,Y,,1,6,pizza,62,2,9,13,3,4,4,32,1563018980779,Y,4996,1
225,1,p6,practice,practice_6,,/+/The busy workers * who were * offered a delicious pizza * felt * not so hungry./,Did someone offer the workers a pizza?,Y,,1,6,delicious,63,2,8,13,3,3,4,32,1563018980812,Y,4996,1
225,1,p6,practice,practice_6,,/+/The busy workers * who were * offered a delicious pizza * felt * not so hungry./,Did someone offer the workers a pizza?,Y,,1,6,a,64,2,7,13,3,2,4,32,1563018980845,Y,4996,1
225,1,p6,practice,practice_6,,/+/The busy workers * who were * offered a delicious pizza * felt * not so hungry./,Did someone offer the workers a pizza?,Y,,1,6,offered,65,2,6,13,3,1,4,33,1563018980879,Y,4996,1
225,1,p6,practice,practice_6,,/+/The busy workers * who were * offered a delicious pizza * felt * not so hungry./,Did someone offer the workers a pizza?,Y,,1,6,were,66,2,5,13,2,2,2,33,1563018980912,Y,4996,1
225,1,p6,practice,practice_6,,/+/The busy workers * who were * offered a delicious pizza * felt * not so hungry./,Did someone offer the workers a pizza?,Y,,1,6,who,67,2,4,13,2,1,2,32,1563018980944,Y,4996,1
225,1,p6,practice,practice_6,,/+/The busy workers * who were * offered a delicious pizza * felt * not so hungry./,Did someone offer the workers a pizza?,Y,,1,6,workers,68,2,3,13,1,3,3,32,1563018980977,Y,4996,1
225,1,p6,practice,practice_6,,/+/The busy workers * who were * offered a delicious pizza * felt * not so hungry./,Did someone offer the workers a pizza?,Y,,1,6,busy,69,2,2,13,1,2,3,32,1563018981010,Y,4996,1
225,1,p6,practice,practice_6,,/+/The busy workers * who were * offered a delicious pizza * felt * not so hungry./,Did someone offer the workers a pizza?,Y,,1,6,The,70,2,1,13,1,1,3,460,1563018981471,Y,4996,1
225,1,p6,practice,practice_6,,/+/The busy workers * who were * offered a delicious pizza * felt * not so hungry./,Did someone offer the workers a pizza?,Y,,1,6,busy,71,2,2,13,1,2,3,376,1563018981847,Y,4996,1
225,1,p6,practice,practice_6,,/+/The busy workers * who were * offered a delicious pizza * felt * not so hungry./,Did someone offer the workers a pizza?,Y,,1,6,workers,72,2,3,13,1,3,3,304,1563018982151,Y,4996,1
225,1,p6,practice,practice_6,,/+/The busy workers * who were * offered a delicious pizza * felt * not so hungry./,Did someone offer the workers a pizza?,Y,,1,6,who,73,2,4,13,2,1,2,952,1563018983103,Y,4996,1
225,1,p6,practice,practice_6,,/+/The busy workers * who were * offered a delicious pizza * felt * not so hungry./,Did someone offer the workers a pizza?,Y,,1,6,were,74,2,5,13,2,2,2,736,1563018983839,Y,4996,1
225,1,p6,practice,practice_6,,/+/The busy workers * who were * offered a delicious pizza * felt * not so hungry./,Did someone offer the workers a pizza?,Y,,1,6,offered,75,2,6,13,3,1,4,391,1563018984230,Y,4996,1
225,1,p6,practice,practice_6,,/+/The busy workers * who were * offered a delicious pizza * felt * not so hungry./,Did someone offer the workers a pizza?,Y,,1,6,a,76,2,7,13,3,2,4,1209,1563018985439,Y,4996,1
225,1,p6,practice,practice_6,,/+/The busy workers * who were * offered a delicious pizza * felt * not so hungry./,Did someone offer the workers a pizza?,Y,,1,6,offered,77,2,6,13,3,1,4,512,1563018985951,Y,4996,1
225,1,p6,practice,practice_6,,/+/The busy workers * who were * offered a delicious pizza * felt * not so hungry./,Did someone offer the workers a pizza?,Y,,1,6,a,78,2,7,13,3,2,4,471,1563018986422,Y,4996,1
225,1,p6,practice,practice_6,,/+/The busy workers * who were * offered a delicious pizza * felt * not so hungry./,Did someone offer the workers a pizza?,Y,,1,6,offered,79,2,6,13,3,1,4,329,1563018986751,Y,4996,1
225,1,p6,practice,practice_6,,/+/The busy workers * who were * offered a delicious pizza * felt * not so hungry./,Did someone offer the workers a pizza?,Y,,1,6,were,80,2,5,13,2,2,2,392,1563018987143,Y,4996,1
225,1,p6,practice,practice_6,,/+/The busy workers * who were * offered a delicious pizza * felt * not so hungry./,Did someone offer the workers a pizza?,Y,,1,6,offered,81,2,6,13,3,1,4,207,1563018987350,Y,4996,1
225,1,p6,practice,practice_6,,/+/The busy workers * who were * offered a delicious pizza * felt * not so hungry./,Did someone offer the workers a pizza?,Y,,1,6,a,82,2,7,13,3,2,4,368,1563018987718,Y,4996,1
225,1,p6,practice,practice_6,,/+/The busy workers * who were * offered a delicious pizza * felt * not so hungry./,Did someone offer the workers a pizza?,Y,,1,6,delicious,83,2,8,13,3,3,4,712,1563018988430,Y,4996,1
225,1,p6,practice,practice_6,,/+/The busy workers * who were * offered a delicious pizza * felt * not so hungry./,Did someone offer the workers a pizza?,Y,,1,6,pizza,84,2,9,13,3,4,4,505,1563018988935,Y,4996,1
225,1,p6,practice,practice_6,,/+/The busy workers * who were * offered a delicious pizza * felt * not so hungry./,Did someone offer the workers a pizza?,Y,,1,6,felt,85,2,10,13,4,1,1,2088,1563018991023,Y,4996,1
225,1,p6,practice,practice_6,,/+/The busy workers * who were * offered a delicious pizza * felt * not so hungry./,Did someone offer the workers a pizza?,Y,,1,6,not,86,2,11,13,5,1,3,552,1563018991575,Y,4996,1
225,1,p6,practice,practice_6,,/+/The busy workers * who were * offered a delicious pizza * felt * not so hungry./,Did someone offer the workers a pizza?,Y,,1,6,so,87,2,12,13,5,2,3,456,1563018992031,Y,4996,1
225,1,p6,practice,practice_6,,/+/The busy workers * who were * offered a delicious pizza * felt * not so hungry./,Did someone offer the workers a pizza?,Y,,1,6,hungry.,88,2,13,13,5,3,3,1528,1563018993559,Y,4996,1
225,1,p6,practice,practice_6,,/+/The busy workers * who were * offered a delicious pizza * felt * not so hungry./,Did someone offer the workers a pizza?,Y,,1,6,so,89,2,12,13,5,2,3,144,1563018993703,Y,4996,1
225,1,p6,practice,practice_6,,/+/The busy workers * who were * offered a delicious pizza * felt * not so hungry./,Did someone offer the workers a pizza?,Y,,1,6,not,90,2,11,13,5,1,3,499,1563018994202,Y,4996,1
225,1,p6,practice,practice_6,,/+/The busy workers * who were * offered a delicious pizza * felt * not so hungry./,Did someone offer the workers a pizza?,Y,,1,6,felt,91,2,10,13,4,1,1,33,1563018994235,Y,4996,1
225,1,p6,practice,practice_6,,/+/The busy workers * who were * offered a delicious pizza * felt * not so hungry./,Did someone offer the workers a pizza?,Y,,1,6,pizza,92,2,9,13,3,4,4,33,1563018994268,Y,4996,1
225,1,p6,practice,practice_6,,/+/The busy workers * who were * offered a delicious pizza * felt * not so hungry./,Did someone offer the workers a pizza?,Y,,1,6,delicious,93,2,8,13,3,3,4,33,1563018994301,Y,4996,1
225,1,p6,practice,practice_6,,/+/The busy workers * who were * offered a delicious pizza * felt * not so hungry./,Did someone offer the workers a pizza?,Y,,1,6,a,94,2,7,13,3,2,4,33,1563018994334,Y,4996,1
225,1,p6,practice,practice_6,,/+/The busy workers * who were * offered a delicious pizza * felt * not so hungry./,Did someone offer the workers a pizza?,Y,,1,6,offered,95,2,6,13,3,1,4,32,1563018994366,Y,4996,1
225,1,p6,practice,practice_6,,/+/The busy workers * who were * offered a delicious pizza * felt * not so hungry./,Did someone offer the workers a pizza?,Y,,1,6,were,96,2,5,13,2,2,2,32,1563018994399,Y,4996,1
225,1,p6,practice,practice_6,,/+/The busy workers * who were * offered a delicious pizza * felt * not so hungry./,Did someone offer the workers a pizza?,Y,,1,6,who,97,2,4,13,2,1,2,352,1563018994751,Y,4996,1
225,1,p6,practice,practice_6,,/+/The busy workers * who were * offered a delicious pizza * felt * not so hungry./,Did someone offer the workers a pizza?,Y,,1,6,workers,98,2,3,13,1,3,3,160,1563018994911,Y,4996,1
225,1,p6,practice,practice_6,,/+/The busy workers * who were * offered a delicious pizza * felt * not so hungry./,Did someone offer the workers a pizza?,Y,,1,6,busy,99,2,2,13,1,2,3,479,1563018995390,Y,4996,1
225,1,p6,practice,practice_6,,/+/The busy workers * who were * offered a delicious pizza * felt * not so hungry./,Did someone offer the workers a pizza?,Y,,1,6,The,100,2,1,13,1,1,3,273,1563018995663,Y,4996,1
225,1,p6,practice,practice_6,,/+/The busy workers * who were * offered a delicious pizza * felt * not so hungry./,Did someone offer the workers a pizza?,Y,,1,6,busy,101,2,2,13,1,2,3,192,1563018995855,Y,4996,1
225,1,p6,practice,practice_6,,/+/The busy workers * who were * offered a delicious pizza * felt * not so hungry./,Did someone offer the workers a pizza?,Y,,1,6,workers,102,2,3,13,1,3,3,168,1563018996023,Y,4996,1
225,1,p6,practice,practice_6,,/+/The busy workers * who were * offered a delicious pizza * felt * not so hungry./,Did someone offer the workers a pizza?,Y,,1,6,who,103,2,4,13,2,1,2,200,1563018996223,Y,4996,1
225,1,p6,practice,practice_6,,/+/The busy workers * who were * offered a delicious pizza * felt * not so hungry./,Did someone offer the workers a pizza?,Y,,1,6,were,104,2,5,13,2,2,2,136,1563018996359,Y,4996,1
225,1,p6,practice,practice_6,,/+/The busy workers * who were * offered a delicious pizza * felt * not so hungry./,Did someone offer the workers a pizza?,Y,,1,6,offered,105,2,6,13,3,1,4,1231,1563018997590,Y,4996,1
225,1,p6,practice,practice_6,,/+/The busy workers * who were * offered a delicious pizza * felt * not so hungry./,Did someone offer the workers a pizza?,Y,,1,6,were,106,2,5,13,2,2,2,209,1563018997799,Y,4996,1
225,1,p6,practice,practice_6,,/+/The busy workers * who were * offered a delicious pizza * felt * not so hungry./,Did someone offer the workers a pizza?,Y,,1,6,who,107,2,4,13,2,1,2,296,1563018998095,Y,4996,1
225,1,p6,practice,practice_6,,/+/The busy workers * who were * offered a delicious pizza * felt * not so hungry./,Did someone offer the workers a pizza?,Y,,1,6,were,108,2,5,13,2,2,2,176,1563018998271,Y,4996,1
225,1,p6,practice,practice_6,,/+/The busy workers * who were * offered a delicious pizza * felt * not so hungry./,Did someone offer the workers a pizza?,Y,,1,6,offered,109,2,6,13,3,1,4,607,1563018998878,Y,4996,1
225,1,p6,practice,practice_6,,/+/The busy workers * who were * offered a delicious pizza * felt * not so hungry./,Did someone offer the workers a pizza?,Y,,1,6,a,110,2,7,13,3,2,4,385,1563018999263,Y,4996,1
225,1,p6,practice,practice_6,,/+/The busy workers * who were * offered a delicious pizza * felt * not so hungry./,Did someone offer the workers a pizza?,Y,,1,6,delicious,111,2,8,13,3,3,4,904,1563019000167,Y,4996,1
225,1,p6,practice,practice_6,,/+/The busy workers * who were * offered a delicious pizza * felt * not so hungry./,Did someone offer the workers a pizza?,Y,,1,6,pizza,112,2,9,13,3,4,4,592,1563019000759,Y,4996,1
225,1,p6,practice,practice_6,,/+/The busy workers * who were * offered a delicious pizza * felt * not so hungry./,Did someone offer the workers a pizza?,Y,,1,6,felt,113,2,10,13,4,1,1,352,1563019001111,Y,4996,1
225,1,p6,practice,practice_6,,/+/The busy workers * who were * offered a delicious pizza * felt * not so hungry./,Did someone offer the workers a pizza?,Y,,1,6,not,114,2,11,13,5,1,3,4201,1563019005312,Y,4996,1
225,1,p6,practice,practice_6,,/+/The busy workers * who were * offered a delicious pizza * felt * not so hungry./,Did someone offer the workers a pizza?,Y,,1,6,so,115,2,12,13,5,2,3,808,1563019006120,Y,4996,1
225,1,p6,practice,practice_6,,/+/The busy workers * who were * offered a delicious pizza * felt * not so hungry./,Did someone offer the workers a pizza?,Y,,1,6,hungry.,116,2,13,13,5,3,3,447,1563019006567,Y,4996,1
225,1,1,filler,filler_6,,/+/The girl sang very well through learning experiences from her tutor./,Did the girl's tutor do a lot of help? ,Y,,0,7,+,1,1,1,1,1,1,1,720,1563019029519,Y,4403,1
225,1,1,filler,filler_6,,/+/The girl sang very well through learning experiences from her tutor./,Did the girl's tutor do a lot of help? ,Y,,0,7,The,2,2,1,11,1,1,11,431,1563019029951,Y,4403,1
225,1,1,filler,filler_6,,/+/The girl sang very well through learning experiences from her tutor./,Did the girl's tutor do a lot of help? ,Y,,0,7,girl,3,2,2,11,1,2,11,448,1563019030399,Y,4403,1
225,1,1,filler,filler_6,,/+/The girl sang very well through learning experiences from her tutor./,Did the girl's tutor do a lot of help? ,Y,,0,7,sang,4,2,3,11,1,3,11,999,1563019031399,Y,4403,1
225,1,1,filler,filler_6,,/+/The girl sang very well through learning experiences from her tutor./,Did the girl's tutor do a lot of help? ,Y,,0,7,very,5,2,4,11,1,4,11,526,1563019031926,Y,4403,1
225,1,1,filler,filler_6,,/+/The girl sang very well through learning experiences from her tutor./,Did the girl's tutor do a lot of help? ,Y,,0,7,well,6,2,5,11,1,5,11,488,1563019032415,Y,4403,1
225,1,1,filler,filler_6,,/+/The girl sang very well through learning experiences from her tutor./,Did the girl's tutor do a lot of help? ,Y,,0,7,through,7,2,6,11,1,6,11,1095,1563019033511,Y,4403,1
225,1,1,filler,filler_6,,/+/The girl sang very well through learning experiences from her tutor./,Did the girl's tutor do a lot of help? ,Y,,0,7,learning,8,2,7,11,1,7,11,687,1563019034199,Y,4403,1
225,1,1,filler,filler_6,,/+/The girl sang very well through learning experiences from her tutor./,Did the girl's tutor do a lot of help? ,Y,,0,7,experiences,9,2,8,11,1,8,11,671,1563019034871,Y,4403,1
225,1,1,filler,filler_6,,/+/The girl sang very well through learning experiences from her tutor./,Did the girl's tutor do a lot of help? ,Y,,0,7,from,10,2,9,11,1,9,11,616,1563019035487,Y,4403,1
225,1,1,filler,filler_6,,/+/The girl sang very well through learning experiences from her tutor./,Did the girl's tutor do a lot of help? ,Y,,0,7,her,11,2,10,11,1,10,11,638,1563019036126,Y,4403,1
225,1,1,filler,filler_6,,/+/The girl sang very well through learning experiences from her tutor./,Did the girl's tutor do a lot of help? ,Y,,0,7,from,12,2,9,11,1,9,11,500,1563019036627,Y,4403,1
225,1,1,filler,filler_6,,/+/The girl sang very well through learning experiences from her tutor./,Did the girl's tutor do a lot of help? ,Y,,0,7,experiences,13,2,8,11,1,8,11,33,1563019036660,Y,4403,1
225,1,1,filler,filler_6,,/+/The girl sang very well through learning experiences from her tutor./,Did the girl's tutor do a lot of help? ,Y,,0,7,learning,14,2,7,11,1,7,11,33,1563019036693,Y,4403,1
225,1,1,filler,filler_6,,/+/The girl sang very well through learning experiences from her tutor./,Did the girl's tutor do a lot of help? ,Y,,0,7,through,15,2,6,11,1,6,11,33,1563019036726,Y,4403,1
225,1,1,filler,filler_6,,/+/The girl sang very well through learning experiences from her tutor./,Did the girl's tutor do a lot of help? ,Y,,0,7,well,16,2,5,11,1,5,11,33,1563019036759,Y,4403,1
225,1,1,filler,filler_6,,/+/The girl sang very well through learning experiences from her tutor./,Did the girl's tutor do a lot of help? ,Y,,0,7,very,17,2,4,11,1,4,11,33,1563019036792,Y,4403,1
225,1,1,filler,filler_6,,/+/The girl sang very well through learning experiences from her tutor./,Did the girl's tutor do a lot of help? ,Y,,0,7,sang,18,2,3,11,1,3,11,33,1563019036825,Y,4403,1
225,1,1,filler,filler_6,,/+/The girl sang very well through learning experiences from her tutor./,Did the girl's tutor do a lot of help? ,Y,,0,7,girl,19,2,2,11,1,2,11,33,1563019036858,Y,4403,1
225,1,1,filler,filler_6,,/+/The girl sang very well through learning experiences from her tutor./,Did the girl's tutor do a lot of help? ,Y,,0,7,The,20,2,1,11,1,1,11,549,1563019037407,Y,4403,1
225,1,1,filler,filler_6,,/+/The girl sang very well through learning experiences from her tutor./,Did the girl's tutor do a lot of help? ,Y,,0,7,girl,21,2,2,11,1,2,11,208,1563019037615,Y,4403,1
225,1,1,filler,filler_6,,/+/The girl sang very well through learning experiences from her tutor./,Did the girl's tutor do a lot of help? ,Y,,0,7,sang,22,2,3,11,1,3,11,472,1563019038087,Y,4403,1
225,1,1,filler,filler_6,,/+/The girl sang very well through learning experiences from her tutor./,Did the girl's tutor do a lot of help? ,Y,,0,7,very,23,2,4,11,1,4,11,1216,1563019039304,Y,4403,1
225,1,1,filler,filler_6,,/+/The girl sang very well through learning experiences from her tutor./,Did the girl's tutor do a lot of help? ,Y,,0,7,sang,24,2,3,11,1,3,11,199,1563019039503,Y,4403,1
225,1,1,filler,filler_6,,/+/The girl sang very well through learning experiences from her tutor./,Did the girl's tutor do a lot of help? ,Y,,0,7,girl,25,2,2,11,1,2,11,392,1563019039895,Y,4403,1
225,1,1,filler,filler_6,,/+/The girl sang very well through learning experiences from her tutor./,Did the girl's tutor do a lot of help? ,Y,,0,7,sang,26,2,3,11,1,3,11,664,1563019040559,Y,4403,1
225,1,1,filler,filler_6,,/+/The girl sang very well through learning experiences from her tutor./,Did the girl's tutor do a lot of help? ,Y,,0,7,very,27,2,4,11,1,4,11,248,1563019040807,Y,4403,1
225,1,1,filler,filler_6,,/+/The girl sang very well through learning experiences from her tutor./,Did the girl's tutor do a lot of help? ,Y,,0,7,well,28,2,5,11,1,5,11,584,1563019041391,Y,4403,1
225,1,1,filler,filler_6,,/+/The girl sang very well through learning experiences from her tutor./,Did the girl's tutor do a lot of help? ,Y,,0,7,through,29,2,6,11,1,6,11,928,1563019042319,Y,4403,1
225,1,1,filler,filler_6,,/+/The girl sang very well through learning experiences from her tutor./,Did the girl's tutor do a lot of help? ,Y,,0,7,learning,30,2,7,11,1,7,11,752,1563019043071,Y,4403,1
225,1,1,filler,filler_6,,/+/The girl sang very well through learning experiences from her tutor./,Did the girl's tutor do a lot of help? ,Y,,0,7,experiences,31,2,8,11,1,8,11,1192,1563019044263,Y,4403,1
225,1,1,filler,filler_6,,/+/The girl sang very well through learning experiences from her tutor./,Did the girl's tutor do a lot of help? ,Y,,0,7,from,32,2,9,11,1,9,11,560,1563019044823,Y,4403,1
225,1,1,filler,filler_6,,/+/The girl sang very well through learning experiences from her tutor./,Did the girl's tutor do a lot of help? ,Y,,0,7,her,33,2,10,11,1,10,11,319,1563019045142,Y,4403,1
225,1,1,filler,filler_6,,/+/The girl sang very well through learning experiences from her tutor./,Did the girl's tutor do a lot of help? ,Y,,0,7,tutor.,34,2,11,11,1,11,11,1537,1563019046679,Y,4403,1
225,1,1,filler,filler_6,,/+/The girl sang very well through learning experiences from her tutor./,Did the girl's tutor do a lot of help? ,Y,,0,7,her,35,2,10,11,1,10,11,152,1563019046831,Y,4403,1
225,1,1,filler,filler_6,,/+/The girl sang very well through learning experiences from her tutor./,Did the girl's tutor do a lot of help? ,Y,,0,7,from,36,2,9,11,1,9,11,499,1563019047330,Y,4403,1
225,1,1,filler,filler_6,,/+/The girl sang very well through learning experiences from her tutor./,Did the girl's tutor do a lot of help? ,Y,,0,7,experiences,37,2,8,11,1,8,11,32,1563019047363,Y,4403,1
225,1,1,filler,filler_6,,/+/The girl sang very well through learning experiences from her tutor./,Did the girl's tutor do a lot of help? ,Y,,0,7,learning,38,2,7,11,1,7,11,32,1563019047396,Y,4403,1
225,1,1,filler,filler_6,,/+/The girl sang very well through learning experiences from her tutor./,Did the girl's tutor do a lot of help? ,Y,,0,7,through,39,2,6,11,1,6,11,32,1563019047429,Y,4403,1
225,1,1,filler,filler_6,,/+/The girl sang very well through learning experiences from her tutor./,Did the girl's tutor do a lot of help? ,Y,,0,7,well,40,2,5,11,1,5,11,281,1563019047711,Y,4403,1
225,1,1,filler,filler_6,,/+/The girl sang very well through learning experiences from her tutor./,Did the girl's tutor do a lot of help? ,Y,,0,7,very,41,2,4,11,1,4,11,151,1563019047863,Y,4403,1
225,1,1,filler,filler_6,,/+/The girl sang very well through learning experiences from her tutor./,Did the girl's tutor do a lot of help? ,Y,,0,7,sang,42,2,3,11,1,3,11,415,1563019048278,Y,4403,1
225,1,1,filler,filler_6,,/+/The girl sang very well through learning experiences from her tutor./,Did the girl's tutor do a lot of help? ,Y,,0,7,girl,43,2,2,11,1,2,11,377,1563019048655,Y,4403,1
225,1,1,filler,filler_6,,/+/The girl sang very well through learning experiences from her tutor./,Did the girl's tutor do a lot of help? ,Y,,0,7,The,44,2,1,11,1,1,11,424,1563019049079,Y,4403,1
225,1,1,filler,filler_6,,/+/The girl sang very well through learning experiences from her tutor./,Did the girl's tutor do a lot of help? ,Y,,0,7,girl,45,2,2,11,1,2,11,183,1563019049262,Y,4403,1
225,1,1,filler,filler_6,,/+/The girl sang very well through learning experiences from her tutor./,Did the girl's tutor do a lot of help? ,Y,,0,7,sang,46,2,3,11,1,3,11,504,1563019049767,Y,4403,1
225,1,1,filler,filler_6,,/+/The girl sang very well through learning experiences from her tutor./,Did the girl's tutor do a lot of help? ,Y,,0,7,very,47,2,4,11,1,4,11,288,1563019050055,Y,4403,1
225,1,1,filler,filler_6,,/+/The girl sang very well through learning experiences from her tutor./,Did the girl's tutor do a lot of help? ,Y,,0,7,well,48,2,5,11,1,5,11,167,1563019050222,Y,4403,1
225,1,1,filler,filler_6,,/+/The girl sang very well through learning experiences from her tutor./,Did the girl's tutor do a lot of help? ,Y,,0,7,through,49,2,6,11,1,6,11,777,1563019050999,Y,4403,1
225,1,1,filler,filler_6,,/+/The girl sang very well through learning experiences from her tutor./,Did the girl's tutor do a lot of help? ,Y,,0,7,learning,50,2,7,11,1,7,11,1800,1563019052799,Y,4403,1
225,1,1,filler,filler_6,,/+/The girl sang very well through learning experiences from her tutor./,Did the girl's tutor do a lot of help? ,Y,,0,7,experiences,51,2,8,11,1,8,11,911,1563019053711,Y,4403,1
225,1,1,filler,filler_6,,/+/The girl sang very well through learning experiences from her tutor./,Did the girl's tutor do a lot of help? ,Y,,0,7,from,52,2,9,11,1,9,11,280,1563019053991,Y,4403,1
225,1,1,filler,filler_6,,/+/The girl sang very well through learning experiences from her tutor./,Did the girl's tutor do a lot of help? ,Y,,0,7,her,53,2,10,11,1,10,11,351,1563019054342,Y,4403,1
225,1,1,filler,filler_6,,/+/The girl sang very well through learning experiences from her tutor./,Did the girl's tutor do a lot of help? ,Y,,0,7,tutor.,54,2,11,11,1,11,11,616,1563019054959,Y,4403,1
225,1,2,filler,filler_7,,/+/Some important papers which lay in the office were stolen last night./,Were the papers still safe?,N,,0,8,+,1,1,1,1,1,1,1,575,1563019060446,N,5131,1
225,1,2,filler,filler_7,,/+/Some important papers which lay in the office were stolen last night./,Were the papers still safe?,N,,0,8,Some,2,2,1,12,1,1,12,368,1563019060815,N,5131,1
225,1,2,filler,filler_7,,/+/Some important papers which lay in the office were stolen last night./,Were the papers still safe?,N,,0,8,important,3,2,2,12,1,2,12,696,1563019061511,N,5131,1
225,1,2,filler,filler_7,,/+/Some important papers which lay in the office were stolen last night./,Were the papers still safe?,N,,0,8,papers,4,2,3,12,1,3,12,272,1563019061783,N,5131,1
225,1,2,filler,filler_7,,/+/Some important papers which lay in the office were stolen last night./,Were the papers still safe?,N,,0,8,which,5,2,4,12,1,4,12,1559,1563019063342,N,5131,1
225,1,2,filler,filler_7,,/+/Some important papers which lay in the office were stolen last night./,Were the papers still safe?,N,,0,8,lay,6,2,5,12,1,5,12,401,1563019063743,N,5131,1
225,1,2,filler,filler_7,,/+/Some important papers which lay in the office were stolen last night./,Were the papers still safe?,N,,0,8,in,7,2,6,12,1,6,12,615,1563019064358,N,5131,1
225,1,2,filler,filler_7,,/+/Some important papers which lay in the office were stolen last night./,Were the papers still safe?,N,,0,8,the,8,2,7,12,1,7,12,457,1563019064815,N,5131,1
225,1,2,filler,filler_7,,/+/Some important papers which lay in the office were stolen last night./,Were the papers still safe?,N,,0,8,office,9,2,8,12,1,8,12,928,1563019065743,N,5131,1
225,1,2,filler,filler_7,,/+/Some important papers which lay in the office were stolen last night./,Were the papers still safe?,N,,0,8,the,10,2,7,12,1,7,12,144,1563019065887,N,5131,1
225,1,2,filler,filler_7,,/+/Some important papers which lay in the office were stolen last night./,Were the papers still safe?,N,,0,8,in,11,2,6,12,1,6,12,168,1563019066055,N,5131,1
225,1,2,filler,filler_7,,/+/Some important papers which lay in the office were stolen last night./,Were the papers still safe?,N,,0,8,lay,12,2,5,12,1,5,12,160,1563019066215,N,5131,1
225,1,2,filler,filler_7,,/+/Some important papers which lay in the office were stolen last night./,Were the papers still safe?,N,,0,8,which,13,2,4,12,1,4,12,151,1563019066366,N,5131,1
225,1,2,filler,filler_7,,/+/Some important papers which lay in the office were stolen last night./,Were the papers still safe?,N,,0,8,papers,14,2,3,12,1,3,12,160,1563019066526,N,5131,1
225,1,2,filler,filler_7,,/+/Some important papers which lay in the office were stolen last night./,Were the papers still safe?,N,,0,8,important,15,2,2,12,1,2,12,209,1563019066735,N,5131,1
225,1,2,filler,filler_7,,/+/Some important papers which lay in the office were stolen last night./,Were the papers still safe?,N,,0,8,Some,16,2,1,12,1,1,12,432,1563019067167,N,5131,1
225,1,2,filler,filler_7,,/+/Some important papers which lay in the office were stolen last night./,Were the papers still safe?,N,,0,8,important,17,2,2,12,1,2,12,184,1563019067351,N,5131,1
225,1,2,filler,filler_7,,/+/Some important papers which lay in the office were stolen last night./,Were the papers still safe?,N,,0,8,papers,18,2,3,12,1,3,12,648,1563019067999,N,5131,1
225,1,2,filler,filler_7,,/+/Some important papers which lay in the office were stolen last night./,Were the papers still safe?,N,,0,8,which,19,2,4,12,1,4,12,216,1563019068215,N,5131,1
225,1,2,filler,filler_7,,/+/Some important papers which lay in the office were stolen last night./,Were the papers still safe?,N,,0,8,lay,20,2,5,12,1,5,12,864,1563019069079,N,5131,1
225,1,2,filler,filler_7,,/+/Some important papers which lay in the office were stolen last night./,Were the papers still safe?,N,,0,8,which,21,2,4,12,1,4,12,256,1563019069335,N,5131,1
225,1,2,filler,filler_7,,/+/Some important papers which lay in the office were stolen last night./,Were the papers still safe?,N,,0,8,papers,22,2,3,12,1,3,12,464,1563019069799,N,5131,1
225,1,2,filler,filler_7,,/+/Some important papers which lay in the office were stolen last night./,Were the papers still safe?,N,,0,8,which,23,2,4,12,1,4,12,288,1563019070087,N,5131,1
225,1,2,filler,filler_7,,/+/Some important papers which lay in the office were stolen last night./,Were the papers still safe?,N,,0,8,lay,24,2,5,12,1,5,12,312,1563019070399,N,5131,1
225,1,2,filler,filler_7,,/+/Some important papers which lay in the office were stolen last night./,Were the papers still safe?,N,,0,8,in,25,2,6,12,1,6,12,328,1563019070727,N,5131,1
225,1,2,filler,filler_7,,/+/Some important papers which lay in the office were stolen last night./,Were the papers still safe?,N,,0,8,the,26,2,7,12,1,7,12,304,1563019071031,N,5131,1
225,1,2,filler,filler_7,,/+/Some important papers which lay in the office were stolen last night./,Were the papers still safe?,N,,0,8,office,27,2,8,12,1,8,12,559,1563019071590,N,5131,1
225,1,2,filler,filler_7,,/+/Some important papers which lay in the office were stolen last night./,Were the papers still safe?,N,,0,8,were,28,2,9,12,1,9,12,345,1563019071935,N,5131,1
225,1,2,filler,filler_7,,/+/Some important papers which lay in the office were stolen last night./,Were the papers still safe?,N,,0,8,stolen,29,2,10,12,1,10,12,1008,1563019072943,N,5131,1
225,1,2,filler,filler_7,,/+/Some important papers which lay in the office were stolen last night./,Were the papers still safe?,N,,0,8,last,30,2,11,12,1,11,12,615,1563019073558,N,5131,1
225,1,2,filler,filler_7,,/+/Some important papers which lay in the office were stolen last night./,Were the papers still safe?,N,,0,8,night.,31,2,12,12,1,12,12,897,1563019074455,N,5131,1
225,1,2,filler,filler_7,,/+/Some important papers which lay in the office were stolen last night./,Were the papers still safe?,N,,0,8,last,32,2,11,12,1,11,12,500,1563019074955,N,5131,1
225,1,2,filler,filler_7,,/+/Some important papers which lay in the office were stolen last night./,Were the papers still safe?,N,,0,8,stolen,33,2,10,12,1,10,12,33,1563019074988,N,5131,1
225,1,2,filler,filler_7,,/+/Some important papers which lay in the office were stolen last night./,Were the papers still safe?,N,,0,8,were,34,2,9,12,1,9,12,33,1563019075021,N,5131,1
225,1,2,filler,filler_7,,/+/Some important papers which lay in the office were stolen last night./,Were the papers still safe?,N,,0,8,office,35,2,8,12,1,8,12,33,1563019075054,N,5131,1
225,1,2,filler,filler_7,,/+/Some important papers which lay in the office were stolen last night./,Were the papers still safe?,N,,0,8,the,36,2,7,12,1,7,12,33,1563019075087,N,5131,1
225,1,2,filler,filler_7,,/+/Some important papers which lay in the office were stolen last night./,Were the papers still safe?,N,,0,8,in,37,2,6,12,1,6,12,33,1563019075120,N,5131,1
225,1,2,filler,filler_7,,/+/Some important papers which lay in the office were stolen last night./,Were the papers still safe?,N,,0,8,lay,38,2,5,12,1,5,12,319,1563019075439,N,5131,1
225,1,2,filler,filler_7,,/+/Some important papers which lay in the office were stolen last night./,Were the papers still safe?,N,,0,8,which,39,2,4,12,1,4,12,151,1563019075590,N,5131,1
225,1,2,filler,filler_7,,/+/Some important papers which lay in the office were stolen last night./,Were the papers still safe?,N,,0,8,papers,40,2,3,12,1,3,12,145,1563019075735,N,5131,1
225,1,2,filler,filler_7,,/+/Some important papers which lay in the office were stolen last night./,Were the papers still safe?,N,,0,8,important,41,2,2,12,1,2,12,152,1563019075887,N,5131,1
225,1,2,filler,filler_7,,/+/Some important papers which lay in the office were stolen last night./,Were the papers still safe?,N,,0,8,Some,42,2,1,12,1,1,12,456,1563019076343,N,5131,1
225,1,2,filler,filler_7,,/+/Some important papers which lay in the office were stolen last night./,Were the papers still safe?,N,,0,8,important,43,2,2,12,1,2,12,159,1563019076502,N,5131,1
225,1,2,filler,filler_7,,/+/Some important papers which lay in the office were stolen last night./,Were the papers still safe?,N,,0,8,papers,44,2,3,12,1,3,12,497,1563019076999,N,5131,1
225,1,2,filler,filler_7,,/+/Some important papers which lay in the office were stolen last night./,Were the papers still safe?,N,,0,8,important,45,2,2,12,1,2,12,464,1563019077463,N,5131,1
225,1,2,filler,filler_7,,/+/Some important papers which lay in the office were stolen last night./,Were the papers still safe?,N,,0,8,papers,46,2,3,12,1,3,12,231,1563019077694,N,5131,1
225,1,2,filler,filler_7,,/+/Some important papers which lay in the office were stolen last night./,Were the papers still safe?,N,,0,8,which,47,2,4,12,1,4,12,529,1563019078223,N,5131,1
225,1,2,filler,filler_7,,/+/Some important papers which lay in the office were stolen last night./,Were the papers still safe?,N,,0,8,lay,48,2,5,12,1,5,12,832,1563019079055,N,5131,1
225,1,2,filler,filler_7,,/+/Some important papers which lay in the office were stolen last night./,Were the papers still safe?,N,,0,8,which,49,2,4,12,1,4,12,192,1563019079247,N,5131,1
225,1,2,filler,filler_7,,/+/Some important papers which lay in the office were stolen last night./,Were the papers still safe?,N,,0,8,lay,50,2,5,12,1,5,12,399,1563019079646,N,5131,1
225,1,2,filler,filler_7,,/+/Some important papers which lay in the office were stolen last night./,Were the papers still safe?,N,,0,8,in,51,2,6,12,1,6,12,337,1563019079983,N,5131,1
225,1,2,filler,filler_7,,/+/Some important papers which lay in the office were stolen last night./,Were the papers still safe?,N,,0,8,the,52,2,7,12,1,7,12,352,1563019080335,N,5131,1
225,1,2,filler,filler_7,,/+/Some important papers which lay in the office were stolen last night./,Were the papers still safe?,N,,0,8,office,53,2,8,12,1,8,12,311,1563019080646,N,5131,1
225,1,2,filler,filler_7,,/+/Some important papers which lay in the office were stolen last night./,Were the papers still safe?,N,,0,8,were,54,2,9,12,1,9,12,457,1563019081103,N,5131,1
225,1,2,filler,filler_7,,/+/Some important papers which lay in the office were stolen last night./,Were the papers still safe?,N,,0,8,stolen,55,2,10,12,1,10,12,184,1563019081287,N,5131,1
225,1,2,filler,filler_7,,/+/Some important papers which lay in the office were stolen last night./,Were the papers still safe?,N,,0,8,last,56,2,11,12,1,11,12,463,1563019081750,N,5131,1
225,1,2,filler,filler_7,,/+/Some important papers which lay in the office were stolen last night./,Were the papers still safe?,N,,0,8,night.,57,2,12,12,1,12,12,241,1563019081991,N,5131,1
225,1,3,target,target_1,G,/+/The cotton farmers * warned about the bad floods * had * no other crops./,Did the farmers warn about the floods?,N,,0,9,+,1,1,1,1,1,1,1,511,1563019088135,Y,22675,0
225,1,3,target,target_1,G,/+/The cotton farmers * warned about the bad floods * had * no other crops./,Did the farmers warn about the floods?,N,,0,9,The,2,2,1,12,1,1,3,408,1563019088543,Y,22675,0
225,1,3,target,target_1,G,/+/The cotton farmers * warned about the bad floods * had * no other crops./,Did the farmers warn about the floods?,N,,0,9,cotton,3,2,2,12,1,2,3,760,1563019089303,Y,22675,0
225,1,3,target,target_1,G,/+/The cotton farmers * warned about the bad floods * had * no other crops./,Did the farmers warn about the floods?,N,,0,9,farmers,4,2,3,12,1,3,3,1096,1563019090399,Y,22675,0
225,1,3,target,target_1,G,/+/The cotton farmers * warned about the bad floods * had * no other crops./,Did the farmers warn about the floods?,N,,0,9,warned,5,2,4,12,2,1,5,632,1563019091031,Y,22675,0
225,1,3,target,target_1,G,/+/The cotton farmers * warned about the bad floods * had * no other crops./,Did the farmers warn about the floods?,N,,0,9,about,6,2,5,12,2,2,5,504,1563019091535,Y,22675,0
225,1,3,target,target_1,G,/+/The cotton farmers * warned about the bad floods * had * no other crops./,Did the farmers warn about the floods?,N,,0,9,the,7,2,6,12,2,3,5,424,1563019091959,Y,22675,0
225,1,3,target,target_1,G,/+/The cotton farmers * warned about the bad floods * had * no other crops./,Did the farmers warn about the floods?,N,,0,9,bad,8,2,7,12,2,4,5,544,1563019092503,Y,22675,0
225,1,3,target,target_1,G,/+/The cotton farmers * warned about the bad floods * had * no other crops./,Did the farmers warn about the floods?,N,,0,9,floods,9,2,8,12,2,5,5,1672,1563019094175,Y,22675,0
225,1,3,target,target_1,G,/+/The cotton farmers * warned about the bad floods * had * no other crops./,Did the farmers warn about the floods?,N,,0,9,had,10,2,9,12,3,1,1,552,1563019094727,Y,22675,0
225,1,3,target,target_1,G,/+/The cotton farmers * warned about the bad floods * had * no other crops./,Did the farmers warn about the floods?,N,,0,9,no,11,2,10,12,4,1,3,1024,1563019095751,Y,22675,0
225,1,3,target,target_1,G,/+/The cotton farmers * warned about the bad floods * had * no other crops./,Did the farmers warn about the floods?,N,,0,9,other,12,2,11,12,4,2,3,544,1563019096295,Y,22675,0
225,1,3,target,target_1,G,/+/The cotton farmers * warned about the bad floods * had * no other crops./,Did the farmers warn about the floods?,N,,0,9,crops.,13,2,12,12,4,3,3,888,1563019097183,Y,22675,0
225,1,3,target,target_1,G,/+/The cotton farmers * warned about the bad floods * had * no other crops./,Did the farmers warn about the floods?,N,,0,9,other,14,2,11,12,4,2,3,499,1563019097682,Y,22675,0
225,1,3,target,target_1,G,/+/The cotton farmers * warned about the bad floods * had * no other crops./,Did the farmers warn about the floods?,N,,0,9,no,15,2,10,12,4,1,3,33,1563019097715,Y,22675,0
225,1,3,target,target_1,G,/+/The cotton farmers * warned about the bad floods * had * no other crops./,Did the farmers warn about the floods?,N,,0,9,had,16,2,9,12,3,1,1,33,1563019097748,Y,22675,0
225,1,3,target,target_1,G,/+/The cotton farmers * warned about the bad floods * had * no other crops./,Did the farmers warn about the floods?,N,,0,9,floods,17,2,8,12,2,5,5,33,1563019097781,Y,22675,0
225,1,3,target,target_1,G,/+/The cotton farmers * warned about the bad floods * had * no other crops./,Did the farmers warn about the floods?,N,,0,9,bad,18,2,7,12,2,4,5,32,1563019097813,Y,22675,0
225,1,3,target,target_1,G,/+/The cotton farmers * warned about the bad floods * had * no other crops./,Did the farmers warn about the floods?,N,,0,9,the,19,2,6,12,2,3,5,33,1563019097846,Y,22675,0
225,1,3,target,target_1,G,/+/The cotton farmers * warned about the bad floods * had * no other crops./,Did the farmers warn about the floods?,N,,0,9,about,20,2,5,12,2,2,5,233,1563019098079,Y,22675,0
225,1,3,target,target_1,G,/+/The cotton farmers * warned about the bad floods * had * no other crops./,Did the farmers warn about the floods?,N,,0,9,warned,21,2,4,12,2,1,5,192,1563019098271,Y,22675,0
225,1,3,target,target_1,G,/+/The cotton farmers * warned about the bad floods * had * no other crops./,Did the farmers warn about the floods?,N,,0,9,farmers,22,2,3,12,1,3,3,160,1563019098431,Y,22675,0
225,1,3,target,target_1,G,/+/The cotton farmers * warned about the bad floods * had * no other crops./,Did the farmers warn about the floods?,N,,0,9,cotton,23,2,2,12,1,2,3,439,1563019098870,Y,22675,0
225,1,3,target,target_1,G,/+/The cotton farmers * warned about the bad floods * had * no other crops./,Did the farmers warn about the floods?,N,,0,9,The,24,2,1,12,1,1,3,649,1563019099519,Y,22675,0
225,1,3,target,target_1,G,/+/The cotton farmers * warned about the bad floods * had * no other crops./,Did the farmers warn about the floods?,N,,0,9,cotton,25,2,2,12,1,2,3,544,1563019100063,Y,22675,0
225,1,3,target,target_1,G,/+/The cotton farmers * warned about the bad floods * had * no other crops./,Did the farmers warn about the floods?,N,,0,9,farmers,26,2,3,12,1,3,3,560,1563019100623,Y,22675,0
225,1,3,target,target_1,G,/+/The cotton farmers * warned about the bad floods * had * no other crops./,Did the farmers warn about the floods?,N,,0,9,warned,27,2,4,12,2,1,5,311,1563019100934,Y,22675,0
225,1,3,target,target_1,G,/+/The cotton farmers * warned about the bad floods * had * no other crops./,Did the farmers warn about the floods?,N,,0,9,about,28,2,5,12,2,2,5,457,1563019101391,Y,22675,0
225,1,3,target,target_1,G,/+/The cotton farmers * warned about the bad floods * had * no other crops./,Did the farmers warn about the floods?,N,,0,9,the,29,2,6,12,2,3,5,112,1563019101503,Y,22675,0
225,1,3,target,target_1,G,/+/The cotton farmers * warned about the bad floods * had * no other crops./,Did the farmers warn about the floods?,N,,0,9,about,30,2,5,12,2,2,5,256,1563019101759,Y,22675,0
225,1,3,target,target_1,G,/+/The cotton farmers * warned about the bad floods * had * no other crops./,Did the farmers warn about the floods?,N,,0,9,warned,31,2,4,12,2,1,5,151,1563019101910,Y,22675,0
225,1,3,target,target_1,G,/+/The cotton farmers * warned about the bad floods * had * no other crops./,Did the farmers warn about the floods?,N,,0,9,farmers,32,2,3,12,1,3,3,409,1563019102319,Y,22675,0
225,1,3,target,target_1,G,/+/The cotton farmers * warned about the bad floods * had * no other crops./,Did the farmers warn about the floods?,N,,0,9,warned,33,2,4,12,2,1,5,496,1563019102815,Y,22675,0
225,1,3,target,target_1,G,/+/The cotton farmers * warned about the bad floods * had * no other crops./,Did the farmers warn about the floods?,N,,0,9,about,34,2,5,12,2,2,5,480,1563019103295,Y,22675,0
225,1,3,target,target_1,G,/+/The cotton farmers * warned about the bad floods * had * no other crops./,Did the farmers warn about the floods?,N,,0,9,the,35,2,6,12,2,3,5,368,1563019103663,Y,22675,0
225,1,3,target,target_1,G,/+/The cotton farmers * warned about the bad floods * had * no other crops./,Did the farmers warn about the floods?,N,,0,9,bad,36,2,7,12,2,4,5,560,1563019104223,Y,22675,0
225,1,3,target,target_1,G,/+/The cotton farmers * warned about the bad floods * had * no other crops./,Did the farmers warn about the floods?,N,,0,9,floods,37,2,8,12,2,5,5,1807,1563019106030,Y,22675,0
225,1,3,target,target_1,G,/+/The cotton farmers * warned about the bad floods * had * no other crops./,Did the farmers warn about the floods?,N,,0,9,bad,38,2,7,12,2,4,5,185,1563019106215,Y,22675,0
225,1,3,target,target_1,G,/+/The cotton farmers * warned about the bad floods * had * no other crops./,Did the farmers warn about the floods?,N,,0,9,the,39,2,6,12,2,3,5,152,1563019106367,Y,22675,0
225,1,3,target,target_1,G,/+/The cotton farmers * warned about the bad floods * had * no other crops./,Did the farmers warn about the floods?,N,,0,9,about,40,2,5,12,2,2,5,464,1563019106831,Y,22675,0
225,1,3,target,target_1,G,/+/The cotton farmers * warned about the bad floods * had * no other crops./,Did the farmers warn about the floods?,N,,0,9,warned,41,2,4,12,2,1,5,312,1563019107143,Y,22675,0
225,1,3,target,target_1,G,/+/The cotton farmers * warned about the bad floods * had * no other crops./,Did the farmers warn about the floods?,N,,0,9,farmers,42,2,3,12,1,3,3,360,1563019107503,Y,22675,0
225,1,3,target,target_1,G,/+/The cotton farmers * warned about the bad floods * had * no other crops./,Did the farmers warn about the floods?,N,,0,9,cotton,43,2,2,12,1,2,3,551,1563019108054,Y,22675,0
225,1,3,target,target_1,G,/+/The cotton farmers * warned about the bad floods * had * no other crops./,Did the farmers warn about the floods?,N,,0,9,The,44,2,1,12,1,1,3,345,1563019108399,Y,22675,0
225,1,3,target,target_1,G,/+/The cotton farmers * warned about the bad floods * had * no other crops./,Did the farmers warn about the floods?,N,,0,9,cotton,45,2,2,12,1,2,3,216,1563019108615,Y,22675,0
225,1,3,target,target_1,G,/+/The cotton farmers * warned about the bad floods * had * no other crops./,Did the farmers warn about the floods?,N,,0,9,farmers,46,2,3,12,1,3,3,168,1563019108783,Y,22675,0
225,1,3,target,target_1,G,/+/The cotton farmers * warned about the bad floods * had * no other crops./,Did the farmers warn about the floods?,N,,0,9,warned,47,2,4,12,2,1,5,432,1563019109215,Y,22675,0
225,1,3,target,target_1,G,/+/The cotton farmers * warned about the bad floods * had * no other crops./,Did the farmers warn about the floods?,N,,0,9,about,48,2,5,12,2,2,5,496,1563019109711,Y,22675,0
225,1,3,target,target_1,G,/+/The cotton farmers * warned about the bad floods * had * no other crops./,Did the farmers warn about the floods?,N,,0,9,the,49,2,6,12,2,3,5,295,1563019110006,Y,22675,0
225,1,3,target,target_1,G,/+/The cotton farmers * warned about the bad floods * had * no other crops./,Did the farmers warn about the floods?,N,,0,9,bad,50,2,7,12,2,4,5,473,1563019110479,Y,22675,0
225,1,3,target,target_1,G,/+/The cotton farmers * warned about the bad floods * had * no other crops./,Did the farmers warn about the floods?,N,,0,9,floods,51,2,8,12,2,5,5,599,1563019111078,Y,22675,0
