dat_Subject,list,display_order,type,id,con,fab_stimulus,fab_question,fab_key,fab_instruction,fab_feedback,dat_Trial,dat_Window,dat_WindowSequence,dat_LoopNumber,dat_LoopPosition,dat_LoopSum,dat_AreaNumber,dat_AreaPosition,dat_AreaSum,dat_ReactionTime,dat_Time,dat_Ans,dat_AnsReactionTime,dat_Accuracy
204,2,p1,practice,practice_1,,/+/The patient listened to the doctor's advice after he felt hopeless./,Did the patient follow the doctor?,Y,ins.jpg,1,1,+,1,1,1,1,1,1,1,2175,1562900304450,Y,1516,1
204,2,p1,practice,practice_1,,/+/The patient listened to the doctor's advice after he felt hopeless./,Did the patient follow the doctor?,Y,ins.jpg,1,1,The,2,2,1,11,1,1,11,591,1562900305042,Y,1516,1
204,2,p1,practice,practice_1,,/+/The patient listened to the doctor's advice after he felt hopeless./,Did the patient follow the doctor?,Y,ins.jpg,1,1,patient,3,2,2,11,1,2,11,327,1562900305370,Y,1516,1
204,2,p1,practice,practice_1,,/+/The patient listened to the doctor's advice after he felt hopeless./,Did the patient follow the doctor?,Y,ins.jpg,1,1,listened,4,2,3,11,1,3,11,728,1562900306098,Y,1516,1
204,2,p1,practice,practice_1,,/+/The patient listened to the doctor's advice after he felt hopeless./,Did the patient follow the doctor?,Y,ins.jpg,1,1,to,5,2,4,11,1,4,11,416,1562900306514,Y,1516,1
204,2,p1,practice,practice_1,,/+/The patient listened to the doctor's advice after he felt hopeless./,Did the patient follow the doctor?,Y,ins.jpg,1,1,the,6,2,5,11,1,5,11,376,1562900306890,Y,1516,1
204,2,p1,practice,practice_1,,/+/The patient listened to the doctor's advice after he felt hopeless./,Did the patient follow the doctor?,Y,ins.jpg,1,1,doctor's,7,2,6,11,1,6,11,2096,1562900308986,Y,1516,1
204,2,p1,practice,practice_1,,/+/The patient listened to the doctor's advice after he felt hopeless./,Did the patient follow the doctor?,Y,ins.jpg,1,1,advice,8,2,7,11,1,7,11,799,1562900309785,Y,1516,1
204,2,p1,practice,practice_1,,/+/The patient listened to the doctor's advice after he felt hopeless./,Did the patient follow the doctor?,Y,ins.jpg,1,1,after,9,2,8,11,1,8,11,7065,1562900316850,Y,1516,1
204,2,p1,practice,practice_1,,/+/The patient listened to the doctor's advice after he felt hopeless./,Did the patient follow the doctor?,Y,ins.jpg,1,1,he,10,2,9,11,1,9,11,488,1562900317338,Y,1516,1
204,2,p1,practice,practice_1,,/+/The patient listened to the doctor's advice after he felt hopeless./,Did the patient follow the doctor?,Y,ins.jpg,1,1,felt,11,2,10,11,1,10,11,592,1562900317930,Y,1516,1
204,2,p1,practice,practice_1,,/+/The patient listened to the doctor's advice after he felt hopeless./,Did the patient follow the doctor?,Y,ins.jpg,1,1,hopeless.,12,2,11,11,1,11,11,2096,1562900320026,Y,1516,1
204,2,p2,practice,practice_2,,/+/The visitors knew little about how the painting was created./,Did the visitors know how the painting was created?,N,,1,2,+,1,1,1,1,1,1,1,581,1562900322626,N,3364,1
204,2,p2,practice,practice_2,,/+/The visitors knew little about how the painting was created./,Did the visitors know how the painting was created?,N,,1,2,The,2,2,1,10,1,1,10,343,1562900322969,N,3364,1
204,2,p2,practice,practice_2,,/+/The visitors knew little about how the painting was created./,Did the visitors know how the painting was created?,N,,1,2,visitors,3,2,2,10,1,2,10,192,1562900323162,N,3364,1
204,2,p2,practice,practice_2,,/+/The visitors knew little about how the painting was created./,Did the visitors know how the painting was created?,N,,1,2,knew,4,2,3,10,1,3,10,488,1562900323650,N,3364,1
204,2,p2,practice,practice_2,,/+/The visitors knew little about how the painting was created./,Did the visitors know how the painting was created?,N,,1,2,little,5,2,4,10,1,4,10,472,1562900324122,N,3364,1
204,2,p2,practice,practice_2,,/+/The visitors knew little about how the painting was created./,Did the visitors know how the painting was created?,N,,1,2,about,6,2,5,10,1,5,10,1616,1562900325738,N,3364,1
204,2,p2,practice,practice_2,,/+/The visitors knew little about how the painting was created./,Did the visitors know how the painting was created?,N,,1,2,how,7,2,6,10,1,6,10,384,1562900326122,N,3364,1
204,2,p2,practice,practice_2,,/+/The visitors knew little about how the painting was created./,Did the visitors know how the painting was created?,N,,1,2,the,8,2,7,10,1,7,10,392,1562900326514,N,3364,1
204,2,p2,practice,practice_2,,/+/The visitors knew little about how the painting was created./,Did the visitors know how the painting was created?,N,,1,2,painting,9,2,8,10,1,8,10,592,1562900327106,N,3364,1
204,2,p2,practice,practice_2,,/+/The visitors knew little about how the painting was created./,Did the visitors know how the painting was created?,N,,1,2,was,10,2,9,10,1,9,10,464,1562900327570,N,3364,1
204,2,p2,practice,practice_2,,/+/The visitors knew little about how the painting was created./,Did the visitors know how the painting was created?,N,,1,2,created.,11,2,10,10,1,10,10,1257,1562900328827,N,3364,1
204,2,p3,practice,practice_3,,/+/The old lady lived further away from the city center./,Did the old lady live in the city center?,N,,1,3,+,1,1,1,1,1,1,1,446,1562900333138,N,3331,1
204,2,p3,practice,practice_3,,/+/The old lady lived further away from the city center./,Did the old lady live in the city center?,N,,1,3,The,2,2,1,10,1,1,10,320,1562900333458,N,3331,1
204,2,p3,practice,practice_3,,/+/The old lady lived further away from the city center./,Did the old lady live in the city center?,N,,1,3,old,3,2,2,10,1,2,10,215,1562900333674,N,3331,1
204,2,p3,practice,practice_3,,/+/The old lady lived further away from the city center./,Did the old lady live in the city center?,N,,1,3,lady,4,2,3,10,1,3,10,368,1562900334043,N,3331,1
204,2,p3,practice,practice_3,,/+/The old lady lived further away from the city center./,Did the old lady live in the city center?,N,,1,3,lived,5,2,4,10,1,4,10,360,1562900334403,N,3331,1
204,2,p3,practice,practice_3,,/+/The old lady lived further away from the city center./,Did the old lady live in the city center?,N,,1,3,further,6,2,5,10,1,5,10,584,1562900334987,N,3331,1
204,2,p3,practice,practice_3,,/+/The old lady lived further away from the city center./,Did the old lady live in the city center?,N,,1,3,away,7,2,6,10,1,6,10,904,1562900335891,N,3331,1
204,2,p3,practice,practice_3,,/+/The old lady lived further away from the city center./,Did the old lady live in the city center?,N,,1,3,from,8,2,7,10,1,7,10,1536,1562900337427,N,3331,1
204,2,p3,practice,practice_3,,/+/The old lady lived further away from the city center./,Did the old lady live in the city center?,N,,1,3,the,9,2,8,10,1,8,10,392,1562900337819,N,3331,1
204,2,p3,practice,practice_3,,/+/The old lady lived further away from the city center./,Did the old lady live in the city center?,N,,1,3,city,10,2,9,10,1,9,10,360,1562900338179,N,3331,1
204,2,p3,practice,practice_3,,/+/The old lady lived further away from the city center./,Did the old lady live in the city center?,N,,1,3,center.,11,2,10,10,1,10,10,1440,1562900339619,N,3331,1
204,2,p4,practice,practice_4,,/+/The maid looked at the hostess with a nervous smile./,Did the maid feel nervous? ,Y,,1,4,+,1,1,1,1,1,1,1,399,1562900343851,Y,1059,1
204,2,p4,practice,practice_4,,/+/The maid looked at the hostess with a nervous smile./,Did the maid feel nervous? ,Y,,1,4,The,2,2,1,10,1,1,10,312,1562900344163,Y,1059,1
204,2,p4,practice,practice_4,,/+/The maid looked at the hostess with a nervous smile./,Did the maid feel nervous? ,Y,,1,4,maid,3,2,2,10,1,2,10,240,1562900344403,Y,1059,1
204,2,p4,practice,practice_4,,/+/The maid looked at the hostess with a nervous smile./,Did the maid feel nervous? ,Y,,1,4,looked,4,2,3,10,1,3,10,624,1562900345027,Y,1059,1
204,2,p4,practice,practice_4,,/+/The maid looked at the hostess with a nervous smile./,Did the maid feel nervous? ,Y,,1,4,at,5,2,4,10,1,4,10,296,1562900345323,Y,1059,1
204,2,p4,practice,practice_4,,/+/The maid looked at the hostess with a nervous smile./,Did the maid feel nervous? ,Y,,1,4,the,6,2,5,10,1,5,10,280,1562900345603,Y,1059,1
204,2,p4,practice,practice_4,,/+/The maid looked at the hostess with a nervous smile./,Did the maid feel nervous? ,Y,,1,4,hostess,7,2,6,10,1,6,10,240,1562900345843,Y,1059,1
204,2,p4,practice,practice_4,,/+/The maid looked at the hostess with a nervous smile./,Did the maid feel nervous? ,Y,,1,4,with,8,2,7,10,1,7,10,976,1562900346819,Y,1059,1
204,2,p4,practice,practice_4,,/+/The maid looked at the hostess with a nervous smile./,Did the maid feel nervous? ,Y,,1,4,a,9,2,8,10,1,8,10,360,1562900347179,Y,1059,1
204,2,p4,practice,practice_4,,/+/The maid looked at the hostess with a nervous smile./,Did the maid feel nervous? ,Y,,1,4,nervous,10,2,9,10,1,9,10,560,1562900347739,Y,1059,1
204,2,p4,practice,practice_4,,/+/The maid looked at the hostess with a nervous smile./,Did the maid feel nervous? ,Y,,1,4,smile.,11,2,10,10,1,10,10,1799,1562900349538,Y,1059,1
204,2,p5,practice,practice_5,,/+/The young lady * sent a red rose * became * really embarrassed./,Did the lady send a red rose?,N,,1,5,+,1,1,1,1,1,1,1,368,1562900351467,N,1387,1
204,2,p5,practice,practice_5,,/+/The young lady * sent a red rose * became * really embarrassed./,Did the lady send a red rose?,N,,1,5,The,2,2,1,10,1,1,3,231,1562900351699,N,1387,1
204,2,p5,practice,practice_5,,/+/The young lady * sent a red rose * became * really embarrassed./,Did the lady send a red rose?,N,,1,5,young,3,2,2,10,1,2,3,223,1562900351923,N,1387,1
204,2,p5,practice,practice_5,,/+/The young lady * sent a red rose * became * really embarrassed./,Did the lady send a red rose?,N,,1,5,lady,4,2,3,10,1,3,3,247,1562900352171,N,1387,1
204,2,p5,practice,practice_5,,/+/The young lady * sent a red rose * became * really embarrassed./,Did the lady send a red rose?,N,,1,5,sent,5,2,4,10,2,1,4,479,1562900352651,N,1387,1
204,2,p5,practice,practice_5,,/+/The young lady * sent a red rose * became * really embarrassed./,Did the lady send a red rose?,N,,1,5,a,6,2,5,10,2,2,4,352,1562900353003,N,1387,1
204,2,p5,practice,practice_5,,/+/The young lady * sent a red rose * became * really embarrassed./,Did the lady send a red rose?,N,,1,5,red,7,2,6,10,2,3,4,712,1562900353715,N,1387,1
204,2,p5,practice,practice_5,,/+/The young lady * sent a red rose * became * really embarrassed./,Did the lady send a red rose?,N,,1,5,rose,8,2,7,10,2,4,4,984,1562900354699,N,1387,1
204,2,p5,practice,practice_5,,/+/The young lady * sent a red rose * became * really embarrassed./,Did the lady send a red rose?,N,,1,5,became,9,2,8,10,3,1,1,1576,1562900356275,N,1387,1
204,2,p5,practice,practice_5,,/+/The young lady * sent a red rose * became * really embarrassed./,Did the lady send a red rose?,N,,1,5,really,10,2,9,10,4,1,2,504,1562900356779,N,1387,1
204,2,p5,practice,practice_5,,/+/The young lady * sent a red rose * became * really embarrassed./,Did the lady send a red rose?,N,,1,5,embarrassed.,11,2,10,10,4,2,2,1960,1562900358739,N,1387,1
204,2,p5,practice,practice_5,,/+/The young lady * sent a red rose * became * really embarrassed./,Did the lady send a red rose?,N,,1,5,really,12,2,9,10,4,1,2,499,1562900359239,N,1387,1
204,2,p5,practice,practice_5,,/+/The young lady * sent a red rose * became * really embarrassed./,Did the lady send a red rose?,N,,1,5,became,13,2,8,10,3,1,1,32,1562900359271,N,1387,1
204,2,p5,practice,practice_5,,/+/The young lady * sent a red rose * became * really embarrassed./,Did the lady send a red rose?,N,,1,5,rose,14,2,7,10,2,4,4,32,1562900359304,N,1387,1
204,2,p5,practice,practice_5,,/+/The young lady * sent a red rose * became * really embarrassed./,Did the lady send a red rose?,N,,1,5,red,15,2,6,10,2,3,4,33,1562900359337,N,1387,1
204,2,p5,practice,practice_5,,/+/The young lady * sent a red rose * became * really embarrassed./,Did the lady send a red rose?,N,,1,5,a,16,2,5,10,2,2,4,33,1562900359370,N,1387,1
204,2,p5,practice,practice_5,,/+/The young lady * sent a red rose * became * really embarrassed./,Did the lady send a red rose?,N,,1,5,sent,17,2,4,10,2,1,4,369,1562900359739,N,1387,1
204,2,p5,practice,practice_5,,/+/The young lady * sent a red rose * became * really embarrassed./,Did the lady send a red rose?,N,,1,5,lady,18,2,3,10,1,3,3,392,1562900360131,N,1387,1
204,2,p5,practice,practice_5,,/+/The young lady * sent a red rose * became * really embarrassed./,Did the lady send a red rose?,N,,1,5,young,19,2,2,10,1,2,3,824,1562900360955,N,1387,1
204,2,p5,practice,practice_5,,/+/The young lady * sent a red rose * became * really embarrassed./,Did the lady send a red rose?,N,,1,5,lady,20,2,3,10,1,3,3,352,1562900361307,N,1387,1
204,2,p5,practice,practice_5,,/+/The young lady * sent a red rose * became * really embarrassed./,Did the lady send a red rose?,N,,1,5,sent,21,2,4,10,2,1,4,560,1562900361867,N,1387,1
204,2,p5,practice,practice_5,,/+/The young lady * sent a red rose * became * really embarrassed./,Did the lady send a red rose?,N,,1,5,a,22,2,5,10,2,2,4,368,1562900362235,N,1387,1
204,2,p5,practice,practice_5,,/+/The young lady * sent a red rose * became * really embarrassed./,Did the lady send a red rose?,N,,1,5,red,23,2,6,10,2,3,4,360,1562900362595,N,1387,1
204,2,p5,practice,practice_5,,/+/The young lady * sent a red rose * became * really embarrassed./,Did the lady send a red rose?,N,,1,5,rose,24,2,7,10,2,4,4,1288,1562900363883,N,1387,1
204,2,p5,practice,practice_5,,/+/The young lady * sent a red rose * became * really embarrassed./,Did the lady send a red rose?,N,,1,5,became,25,2,8,10,3,1,1,760,1562900364643,N,1387,1
204,2,p5,practice,practice_5,,/+/The young lady * sent a red rose * became * really embarrassed./,Did the lady send a red rose?,N,,1,5,really,26,2,9,10,4,1,2,2703,1562900367346,N,1387,1
204,2,p5,practice,practice_5,,/+/The young lady * sent a red rose * became * really embarrassed./,Did the lady send a red rose?,N,,1,5,embarrassed.,27,2,10,10,4,2,2,2544,1562900369891,N,1387,1
204,2,p6,practice,practice_6,,/+/The busy workers * who were * offered a delicious pizza * felt * not so hungry./,Did someone offer the workers a pizza?,Y,,1,6,+,1,1,1,1,1,1,1,631,1562900372411,Y,1644,1
204,2,p6,practice,practice_6,,/+/The busy workers * who were * offered a delicious pizza * felt * not so hungry./,Did someone offer the workers a pizza?,Y,,1,6,The,2,2,1,13,1,1,3,304,1562900372715,Y,1644,1
204,2,p6,practice,practice_6,,/+/The busy workers * who were * offered a delicious pizza * felt * not so hungry./,Did someone offer the workers a pizza?,Y,,1,6,busy,3,2,2,13,1,2,3,280,1562900372995,Y,1644,1
204,2,p6,practice,practice_6,,/+/The busy workers * who were * offered a delicious pizza * felt * not so hungry./,Did someone offer the workers a pizza?,Y,,1,6,workers,4,2,3,13,1,3,3,480,1562900373475,Y,1644,1
204,2,p6,practice,practice_6,,/+/The busy workers * who were * offered a delicious pizza * felt * not so hungry./,Did someone offer the workers a pizza?,Y,,1,6,who,5,2,4,13,2,1,2,520,1562900373995,Y,1644,1
204,2,p6,practice,practice_6,,/+/The busy workers * who were * offered a delicious pizza * felt * not so hungry./,Did someone offer the workers a pizza?,Y,,1,6,were,6,2,5,13,2,2,2,512,1562900374507,Y,1644,1
204,2,p6,practice,practice_6,,/+/The busy workers * who were * offered a delicious pizza * felt * not so hungry./,Did someone offer the workers a pizza?,Y,,1,6,offered,7,2,6,13,3,1,4,912,1562900375419,Y,1644,1
204,2,p6,practice,practice_6,,/+/The busy workers * who were * offered a delicious pizza * felt * not so hungry./,Did someone offer the workers a pizza?,Y,,1,6,a,8,2,7,13,3,2,4,1808,1562900377227,Y,1644,1
204,2,p6,practice,practice_6,,/+/The busy workers * who were * offered a delicious pizza * felt * not so hungry./,Did someone offer the workers a pizza?,Y,,1,6,delicious,9,2,8,13,3,3,4,768,1562900377995,Y,1644,1
204,2,p6,practice,practice_6,,/+/The busy workers * who were * offered a delicious pizza * felt * not so hungry./,Did someone offer the workers a pizza?,Y,,1,6,pizza,10,2,9,13,3,4,4,512,1562900378507,Y,1644,1
204,2,p6,practice,practice_6,,/+/The busy workers * who were * offered a delicious pizza * felt * not so hungry./,Did someone offer the workers a pizza?,Y,,1,6,felt,11,2,10,13,4,1,1,496,1562900379003,Y,1644,1
204,2,p6,practice,practice_6,,/+/The busy workers * who were * offered a delicious pizza * felt * not so hungry./,Did someone offer the workers a pizza?,Y,,1,6,not,12,2,11,13,5,1,3,432,1562900379435,Y,1644,1
204,2,p6,practice,practice_6,,/+/The busy workers * who were * offered a delicious pizza * felt * not so hungry./,Did someone offer the workers a pizza?,Y,,1,6,so,13,2,12,13,5,2,3,400,1562900379835,Y,1644,1
204,2,p6,practice,practice_6,,/+/The busy workers * who were * offered a delicious pizza * felt * not so hungry./,Did someone offer the workers a pizza?,Y,,1,6,hungry.,14,2,13,13,5,3,3,2456,1562900382291,Y,1644,1
204,2,1,filler,filler_6,,/+/The girl sang very well through learning experiences from her tutor./,Did the girl's tutor do a lot of help? ,Y,练习结束，现在开始正式实验。,0,7,+,1,1,1,1,1,1,1,32511,1562900425659,Y,3764,1
204,2,1,filler,filler_6,,/+/The girl sang very well through learning experiences from her tutor./,Did the girl's tutor do a lot of help? ,Y,练习结束，现在开始正式实验。,0,7,The,2,2,1,11,1,1,11,623,1562900426283,Y,3764,1
204,2,1,filler,filler_6,,/+/The girl sang very well through learning experiences from her tutor./,Did the girl's tutor do a lot of help? ,Y,练习结束，现在开始正式实验。,0,7,girl,3,2,2,11,1,2,11,400,1562900426683,Y,3764,1
204,2,1,filler,filler_6,,/+/The girl sang very well through learning experiences from her tutor./,Did the girl's tutor do a lot of help? ,Y,练习结束，现在开始正式实验。,0,7,sang,4,2,3,11,1,3,11,480,1562900427163,Y,3764,1
204,2,1,filler,filler_6,,/+/The girl sang very well through learning experiences from her tutor./,Did the girl's tutor do a lot of help? ,Y,练习结束，现在开始正式实验。,0,7,very,5,2,4,11,1,4,11,600,1562900427763,Y,3764,1
204,2,1,filler,filler_6,,/+/The girl sang very well through learning experiences from her tutor./,Did the girl's tutor do a lot of help? ,Y,练习结束，现在开始正式实验。,0,7,well,6,2,5,11,1,5,11,856,1562900428619,Y,3764,1
204,2,1,filler,filler_6,,/+/The girl sang very well through learning experiences from her tutor./,Did the girl's tutor do a lot of help? ,Y,练习结束，现在开始正式实验。,0,7,through,7,2,6,11,1,6,11,839,1562900429458,Y,3764,1
204,2,1,filler,filler_6,,/+/The girl sang very well through learning experiences from her tutor./,Did the girl's tutor do a lot of help? ,Y,练习结束，现在开始正式实验。,0,7,learning,8,2,7,11,1,7,11,1241,1562900430699,Y,3764,1
204,2,1,filler,filler_6,,/+/The girl sang very well through learning experiences from her tutor./,Did the girl's tutor do a lot of help? ,Y,练习结束，现在开始正式实验。,0,7,experiences,9,2,8,11,1,8,11,1536,1562900432235,Y,3764,1
204,2,1,filler,filler_6,,/+/The girl sang very well through learning experiences from her tutor./,Did the girl's tutor do a lot of help? ,Y,练习结束，现在开始正式实验。,0,7,from,10,2,9,11,1,9,11,1656,1562900433891,Y,3764,1
204,2,1,filler,filler_6,,/+/The girl sang very well through learning experiences from her tutor./,Did the girl's tutor do a lot of help? ,Y,练习结束，现在开始正式实验。,0,7,her,11,2,10,11,1,10,11,544,1562900434435,Y,3764,1
204,2,1,filler,filler_6,,/+/The girl sang very well through learning experiences from her tutor./,Did the girl's tutor do a lot of help? ,Y,练习结束，现在开始正式实验。,0,7,tutor.,12,2,11,11,1,11,11,1712,1562900436147,Y,3764,1
204,2,1,filler,filler_6,,/+/The girl sang very well through learning experiences from her tutor./,Did the girl's tutor do a lot of help? ,Y,练习结束，现在开始正式实验。,0,7,her,13,2,10,11,1,10,11,415,1562900436562,Y,3764,1
204,2,1,filler,filler_6,,/+/The girl sang very well through learning experiences from her tutor./,Did the girl's tutor do a lot of help? ,Y,练习结束，现在开始正式实验。,0,7,from,14,2,9,11,1,9,11,500,1562900437062,Y,3764,1
204,2,1,filler,filler_6,,/+/The girl sang very well through learning experiences from her tutor./,Did the girl's tutor do a lot of help? ,Y,练习结束，现在开始正式实验。,0,7,experiences,15,2,8,11,1,8,11,32,1562900437095,Y,3764,1
204,2,1,filler,filler_6,,/+/The girl sang very well through learning experiences from her tutor./,Did the girl's tutor do a lot of help? ,Y,练习结束，现在开始正式实验。,0,7,learning,16,2,7,11,1,7,11,32,1562900437128,Y,3764,1
204,2,1,filler,filler_6,,/+/The girl sang very well through learning experiences from her tutor./,Did the girl's tutor do a lot of help? ,Y,练习结束，现在开始正式实验。,0,7,through,17,2,6,11,1,6,11,32,1562900437161,Y,3764,1
204,2,1,filler,filler_6,,/+/The girl sang very well through learning experiences from her tutor./,Did the girl's tutor do a lot of help? ,Y,练习结束，现在开始正式实验。,0,7,well,18,2,5,11,1,5,11,33,1562900437194,Y,3764,1
204,2,1,filler,filler_6,,/+/The girl sang very well through learning experiences from her tutor./,Did the girl's tutor do a lot of help? ,Y,练习结束，现在开始正式实验。,0,7,very,19,2,4,11,1,4,11,33,1562900437227,Y,3764,1
204,2,1,filler,filler_6,,/+/The girl sang very well through learning experiences from her tutor./,Did the girl's tutor do a lot of help? ,Y,练习结束，现在开始正式实验。,0,7,sang,20,2,3,11,1,3,11,32,1562900437260,Y,3764,1
204,2,1,filler,filler_6,,/+/The girl sang very well through learning experiences from her tutor./,Did the girl's tutor do a lot of help? ,Y,练习结束，现在开始正式实验。,0,7,girl,21,2,2,11,1,2,11,33,1562900437293,Y,3764,1
204,2,1,filler,filler_6,,/+/The girl sang very well through learning experiences from her tutor./,Did the girl's tutor do a lot of help? ,Y,练习结束，现在开始正式实验。,0,7,The,22,2,1,11,1,1,11,438,1562900437731,Y,3764,1
204,2,1,filler,filler_6,,/+/The girl sang very well through learning experiences from her tutor./,Did the girl's tutor do a lot of help? ,Y,练习结束，现在开始正式实验。,0,7,girl,23,2,2,11,1,2,11,328,1562900438059,Y,3764,1
204,2,1,filler,filler_6,,/+/The girl sang very well through learning experiences from her tutor./,Did the girl's tutor do a lot of help? ,Y,练习结束，现在开始正式实验。,0,7,sang,24,2,3,11,1,3,11,407,1562900438466,Y,3764,1
204,2,1,filler,filler_6,,/+/The girl sang very well through learning experiences from her tutor./,Did the girl's tutor do a lot of help? ,Y,练习结束，现在开始正式实验。,0,7,very,25,2,4,11,1,4,11,416,1562900438883,Y,3764,1
204,2,1,filler,filler_6,,/+/The girl sang very well through learning experiences from her tutor./,Did the girl's tutor do a lot of help? ,Y,练习结束，现在开始正式实验。,0,7,well,26,2,5,11,1,5,11,415,1562900439299,Y,3764,1
204,2,1,filler,filler_6,,/+/The girl sang very well through learning experiences from her tutor./,Did the girl's tutor do a lot of help? ,Y,练习结束，现在开始正式实验。,0,7,through,27,2,6,11,1,6,11,343,1562900439643,Y,3764,1
204,2,1,filler,filler_6,,/+/The girl sang very well through learning experiences from her tutor./,Did the girl's tutor do a lot of help? ,Y,练习结束，现在开始正式实验。,0,7,learning,28,2,7,11,1,7,11,416,1562900440059,Y,3764,1
204,2,1,filler,filler_6,,/+/The girl sang very well through learning experiences from her tutor./,Did the girl's tutor do a lot of help? ,Y,练习结束，现在开始正式实验。,0,7,experiences,29,2,8,11,1,8,11,648,1562900440708,Y,3764,1
204,2,1,filler,filler_6,,/+/The girl sang very well through learning experiences from her tutor./,Did the girl's tutor do a lot of help? ,Y,练习结束，现在开始正式实验。,0,7,from,30,2,9,11,1,9,11,727,1562900441435,Y,3764,1
204,2,1,filler,filler_6,,/+/The girl sang very well through learning experiences from her tutor./,Did the girl's tutor do a lot of help? ,Y,练习结束，现在开始正式实验。,0,7,her,31,2,10,11,1,10,11,960,1562900442395,Y,3764,1
204,2,1,filler,filler_6,,/+/The girl sang very well through learning experiences from her tutor./,Did the girl's tutor do a lot of help? ,Y,练习结束，现在开始正式实验。,0,7,tutor.,32,2,11,11,1,11,11,8912,1562900451307,Y,3764,1
204,2,2,filler,filler_7,,/+/Some important papers which lay in the office were stolen last night./,Were the papers still safe?,N,,0,8,+,1,1,1,1,1,1,1,495,1562900456067,N,1844,1
204,2,2,filler,filler_7,,/+/Some important papers which lay in the office were stolen last night./,Were the papers still safe?,N,,0,8,Some,2,2,1,12,1,1,12,297,1562900456364,N,1844,1
204,2,2,filler,filler_7,,/+/Some important papers which lay in the office were stolen last night./,Were the papers still safe?,N,,0,8,important,3,2,2,12,1,2,12,272,1562900456636,N,1844,1
204,2,2,filler,filler_7,,/+/Some important papers which lay in the office were stolen last night./,Were the papers still safe?,N,,0,8,papers,4,2,3,12,1,3,12,632,1562900457268,N,1844,1
204,2,2,filler,filler_7,,/+/Some important papers which lay in the office were stolen last night./,Were the papers still safe?,N,,0,8,which,5,2,4,12,1,4,12,434,1562900457702,N,1844,1
204,2,2,filler,filler_7,,/+/Some important papers which lay in the office were stolen last night./,Were the papers still safe?,N,,0,8,lay,6,2,5,12,1,5,12,608,1562900458310,N,1844,1
204,2,2,filler,filler_7,,/+/Some important papers which lay in the office were stolen last night./,Were the papers still safe?,N,,0,8,in,7,2,6,12,1,6,12,509,1562900458819,N,1844,1
204,2,2,filler,filler_7,,/+/Some important papers which lay in the office were stolen last night./,Were the papers still safe?,N,,0,8,the,8,2,7,12,1,7,12,720,1562900459539,N,1844,1
204,2,2,filler,filler_7,,/+/Some important papers which lay in the office were stolen last night./,Were the papers still safe?,N,,0,8,office,9,2,8,12,1,8,12,2672,1562900462211,N,1844,1
204,2,2,filler,filler_7,,/+/Some important papers which lay in the office were stolen last night./,Were the papers still safe?,N,,0,8,were,10,2,9,12,1,9,12,1272,1562900463483,N,1844,1
204,2,2,filler,filler_7,,/+/Some important papers which lay in the office were stolen last night./,Were the papers still safe?,N,,0,8,stolen,11,2,10,12,1,10,12,872,1562900464355,N,1844,1
204,2,2,filler,filler_7,,/+/Some important papers which lay in the office were stolen last night./,Were the papers still safe?,N,,0,8,last,12,2,11,12,1,11,12,512,1562900464867,N,1844,1
204,2,2,filler,filler_7,,/+/Some important papers which lay in the office were stolen last night./,Were the papers still safe?,N,,0,8,night.,13,2,12,12,1,12,12,2232,1562900467099,N,1844,1
204,2,3,target,target_1,C,/+/The cotton farmers * who were * warned about the bad floods * had * no other crops./,Did the farmers warn about the floods?,N,,0,9,+,1,1,1,1,1,1,1,399,1562900469843,N,3204,1
204,2,3,target,target_1,C,/+/The cotton farmers * who were * warned about the bad floods * had * no other crops./,Did the farmers warn about the floods?,N,,0,9,The,2,2,1,14,1,1,3,320,1562900470163,N,3204,1
204,2,3,target,target_1,C,/+/The cotton farmers * who were * warned about the bad floods * had * no other crops./,Did the farmers warn about the floods?,N,,0,9,cotton,3,2,2,14,1,2,3,240,1562900470403,N,3204,1
204,2,3,target,target_1,C,/+/The cotton farmers * who were * warned about the bad floods * had * no other crops./,Did the farmers warn about the floods?,N,,0,9,farmers,4,2,3,14,1,3,3,1144,1562900471547,N,3204,1
204,2,3,target,target_1,C,/+/The cotton farmers * who were * warned about the bad floods * had * no other crops./,Did the farmers warn about the floods?,N,,0,9,who,5,2,4,14,2,1,2,408,1562900471955,N,3204,1
204,2,3,target,target_1,C,/+/The cotton farmers * who were * warned about the bad floods * had * no other crops./,Did the farmers warn about the floods?,N,,0,9,were,6,2,5,14,2,2,2,384,1562900472339,N,3204,1
204,2,3,target,target_1,C,/+/The cotton farmers * who were * warned about the bad floods * had * no other crops./,Did the farmers warn about the floods?,N,,0,9,warned,7,2,6,14,3,1,5,1632,1562900473971,N,3204,1
204,2,3,target,target_1,C,/+/The cotton farmers * who were * warned about the bad floods * had * no other crops./,Did the farmers warn about the floods?,N,,0,9,about,8,2,7,14,3,2,5,687,1562900474659,N,3204,1
204,2,3,target,target_1,C,/+/The cotton farmers * who were * warned about the bad floods * had * no other crops./,Did the farmers warn about the floods?,N,,0,9,the,9,2,8,14,3,3,5,383,1562900475043,N,3204,1
204,2,3,target,target_1,C,/+/The cotton farmers * who were * warned about the bad floods * had * no other crops./,Did the farmers warn about the floods?,N,,0,9,bad,10,2,9,14,3,4,5,512,1562900475555,N,3204,1
204,2,3,target,target_1,C,/+/The cotton farmers * who were * warned about the bad floods * had * no other crops./,Did the farmers warn about the floods?,N,,0,9,floods,11,2,10,14,3,5,5,695,1562900476251,N,3204,1
204,2,3,target,target_1,C,/+/The cotton farmers * who were * warned about the bad floods * had * no other crops./,Did the farmers warn about the floods?,N,,0,9,had,12,2,11,14,4,1,1,455,1562900476707,N,3204,1
204,2,3,target,target_1,C,/+/The cotton farmers * who were * warned about the bad floods * had * no other crops./,Did the farmers warn about the floods?,N,,0,9,no,13,2,12,14,5,1,3,392,1562900477099,N,3204,1
204,2,3,target,target_1,C,/+/The cotton farmers * who were * warned about the bad floods * had * no other crops./,Did the farmers warn about the floods?,N,,0,9,other,14,2,13,14,5,2,3,496,1562900477595,N,3204,1
204,2,3,target,target_1,C,/+/The cotton farmers * who were * warned about the bad floods * had * no other crops./,Did the farmers warn about the floods?,N,,0,9,crops.,15,2,14,14,5,3,3,2824,1562900480419,N,3204,1
204,2,4,filler,filler_10,,/+/There was a big hole in the road which blocked the traffic./,Was there a big hole in the road?,Y,,0,10,+,1,1,1,1,1,1,1,415,1562900484539,Y,2516,1
204,2,4,filler,filler_10,,/+/There was a big hole in the road which blocked the traffic./,Was there a big hole in the road?,Y,,0,10,There,2,2,1,12,1,1,12,280,1562900484819,Y,2516,1
204,2,4,filler,filler_10,,/+/There was a big hole in the road which blocked the traffic./,Was there a big hole in the road?,Y,,0,10,was,3,2,2,12,1,2,12,304,1562900485123,Y,2516,1
204,2,4,filler,filler_10,,/+/There was a big hole in the road which blocked the traffic./,Was there a big hole in the road?,Y,,0,10,a,4,2,3,12,1,3,12,408,1562900485531,Y,2516,1
204,2,4,filler,filler_10,,/+/There was a big hole in the road which blocked the traffic./,Was there a big hole in the road?,Y,,0,10,big,5,2,4,12,1,4,12,560,1562900486091,Y,2516,1
204,2,4,filler,filler_10,,/+/There was a big hole in the road which blocked the traffic./,Was there a big hole in the road?,Y,,0,10,hole,6,2,5,12,1,5,12,664,1562900486755,Y,2516,1
204,2,4,filler,filler_10,,/+/There was a big hole in the road which blocked the traffic./,Was there a big hole in the road?,Y,,0,10,in,7,2,6,12,1,6,12,832,1562900487587,Y,2516,1
204,2,4,filler,filler_10,,/+/There was a big hole in the road which blocked the traffic./,Was there a big hole in the road?,Y,,0,10,the,8,2,7,12,1,7,12,695,1562900488282,Y,2516,1
204,2,4,filler,filler_10,,/+/There was a big hole in the road which blocked the traffic./,Was there a big hole in the road?,Y,,0,10,road,9,2,8,12,1,8,12,497,1562900488779,Y,2516,1
204,2,4,filler,filler_10,,/+/There was a big hole in the road which blocked the traffic./,Was there a big hole in the road?,Y,,0,10,which,10,2,9,12,1,9,12,616,1562900489395,Y,2516,1
204,2,4,filler,filler_10,,/+/There was a big hole in the road which blocked the traffic./,Was there a big hole in the road?,Y,,0,10,blocked,11,2,10,12,1,10,12,2936,1562900492331,Y,2516,1
204,2,4,filler,filler_10,,/+/There was a big hole in the road which blocked the traffic./,Was there a big hole in the road?,Y,,0,10,the,12,2,11,12,1,11,12,728,1562900493059,Y,2516,1
204,2,4,filler,filler_10,,/+/There was a big hole in the road which blocked the traffic./,Was there a big hole in the road?,Y,,0,10,traffic.,13,2,12,12,1,12,12,8935,1562900501995,Y,2516,1
204,2,5,target,target_2,G,/+/The sunburned boys * served the hot dogs * got * a stomach ache./,Did the boys serve the hot dogs?,N,,0,11,+,1,1,1,1,1,1,1,375,1562900505387,N,1579,1
204,2,5,target,target_2,G,/+/The sunburned boys * served the hot dogs * got * a stomach ache./,Did the boys serve the hot dogs?,N,,0,11,The,2,2,1,11,1,1,3,240,1562900505627,N,1579,1
204,2,5,target,target_2,G,/+/The sunburned boys * served the hot dogs * got * a stomach ache./,Did the boys serve the hot dogs?,N,,0,11,sunburned,3,2,2,11,1,2,3,256,1562900505883,N,1579,1
204,2,5,target,target_2,G,/+/The sunburned boys * served the hot dogs * got * a stomach ache./,Did the boys serve the hot dogs?,N,,0,11,boys,4,2,3,11,1,3,3,792,1562900506675,N,1579,1
204,2,5,target,target_2,G,/+/The sunburned boys * served the hot dogs * got * a stomach ache./,Did the boys serve the hot dogs?,N,,0,11,sunburned,5,2,2,11,1,2,3,720,1562900507395,N,1579,1
204,2,5,target,target_2,G,/+/The sunburned boys * served the hot dogs * got * a stomach ache./,Did the boys serve the hot dogs?,N,,0,11,boys,6,2,3,11,1,3,3,296,1562900507691,N,1579,1
204,2,5,target,target_2,G,/+/The sunburned boys * served the hot dogs * got * a stomach ache./,Did the boys serve the hot dogs?,N,,0,11,served,7,2,4,11,2,1,4,640,1562900508331,N,1579,1
204,2,5,target,target_2,G,/+/The sunburned boys * served the hot dogs * got * a stomach ache./,Did the boys serve the hot dogs?,N,,0,11,the,8,2,5,11,2,2,4,401,1562900508732,N,1579,1
204,2,5,target,target_2,G,/+/The sunburned boys * served the hot dogs * got * a stomach ache./,Did the boys serve the hot dogs?,N,,0,11,hot,9,2,6,11,2,3,4,359,1562900509091,N,1579,1
204,2,5,target,target_2,G,/+/The sunburned boys * served the hot dogs * got * a stomach ache./,Did the boys serve the hot dogs?,N,,0,11,dogs,10,2,7,11,2,4,4,599,1562900509691,N,1579,1
204,2,5,target,target_2,G,/+/The sunburned boys * served the hot dogs * got * a stomach ache./,Did the boys serve the hot dogs?,N,,0,11,got,11,2,8,11,3,1,1,1191,1562900510883,N,1579,1
204,2,5,target,target_2,G,/+/The sunburned boys * served the hot dogs * got * a stomach ache./,Did the boys serve the hot dogs?,N,,0,11,a,12,2,9,11,4,1,3,415,1562900511299,N,1579,1
204,2,5,target,target_2,G,/+/The sunburned boys * served the hot dogs * got * a stomach ache./,Did the boys serve the hot dogs?,N,,0,11,stomach,13,2,10,11,4,2,3,695,1562900511995,N,1579,1
204,2,5,target,target_2,G,/+/The sunburned boys * served the hot dogs * got * a stomach ache./,Did the boys serve the hot dogs?,N,,0,11,ache.,14,2,11,11,4,3,3,2984,1562900514979,N,1579,1
204,2,6,filler,filler_17,,/+/The students who failed the exam were asked to take it again./,Should all students take the exam again?,N,,0,12,+,1,1,1,1,1,1,1,423,1562900517483,N,1907,1
204,2,6,filler,filler_17,,/+/The students who failed the exam were asked to take it again./,Should all students take the exam again?,N,,0,12,The,2,2,1,12,1,1,12,256,1562900517739,N,1907,1
204,2,6,filler,filler_17,,/+/The students who failed the exam were asked to take it again./,Should all students take the exam again?,N,,0,12,students,3,2,2,12,1,2,12,256,1562900517995,N,1907,1
204,2,6,filler,filler_17,,/+/The students who failed the exam were asked to take it again./,Should all students take the exam again?,N,,0,12,who,4,2,3,12,1,3,12,464,1562900518459,N,1907,1
204,2,6,filler,filler_17,,/+/The students who failed the exam were asked to take it again./,Should all students take the exam again?,N,,0,12,failed,5,2,4,12,1,4,12,640,1562900519099,N,1907,1
204,2,6,filler,filler_17,,/+/The students who failed the exam were asked to take it again./,Should all students take the exam again?,N,,0,12,the,6,2,5,12,1,5,12,543,1562900519643,N,1907,1
204,2,6,filler,filler_17,,/+/The students who failed the exam were asked to take it again./,Should all students take the exam again?,N,,0,12,exam,7,2,6,12,1,6,12,592,1562900520235,N,1907,1
204,2,6,filler,filler_17,,/+/The students who failed the exam were asked to take it again./,Should all students take the exam again?,N,,0,12,were,8,2,7,12,1,7,12,1768,1562900522003,N,1907,1
204,2,6,filler,filler_17,,/+/The students who failed the exam were asked to take it again./,Should all students take the exam again?,N,,0,12,asked,9,2,8,12,1,8,12,3144,1562900525147,N,1907,1
204,2,6,filler,filler_17,,/+/The students who failed the exam were asked to take it again./,Should all students take the exam again?,N,,0,12,to,10,2,9,12,1,9,12,584,1562900525731,N,1907,1
204,2,6,filler,filler_17,,/+/The students who failed the exam were asked to take it again./,Should all students take the exam again?,N,,0,12,take,11,2,10,12,1,10,12,544,1562900526275,N,1907,1
204,2,6,filler,filler_17,,/+/The students who failed the exam were asked to take it again./,Should all students take the exam again?,N,,0,12,it,12,2,11,12,1,11,12,368,1562900526644,N,1907,1
204,2,6,filler,filler_17,,/+/The students who failed the exam were asked to take it again./,Should all students take the exam again?,N,,0,12,again.,13,2,12,12,1,12,12,1103,1562900527747,N,1907,1
204,2,7,filler,filler_25,,/+/The suitcase which Mike bought has been broken down by his son./,Has the suitcase been broken by Mike?,N,,0,13,+,1,1,1,1,1,1,1,391,1562900530547,N,1668,1
204,2,7,filler,filler_25,,/+/The suitcase which Mike bought has been broken down by his son./,Has the suitcase been broken by Mike?,N,,0,13,The,2,2,1,12,1,1,12,232,1562900530779,N,1668,1
204,2,7,filler,filler_25,,/+/The suitcase which Mike bought has been broken down by his son./,Has the suitcase been broken by Mike?,N,,0,13,suitcase,3,2,2,12,1,2,12,352,1562900531131,N,1668,1
204,2,7,filler,filler_25,,/+/The suitcase which Mike bought has been broken down by his son./,Has the suitcase been broken by Mike?,N,,0,13,which,4,2,3,12,1,3,12,584,1562900531715,N,1668,1
204,2,7,filler,filler_25,,/+/The suitcase which Mike bought has been broken down by his son./,Has the suitcase been broken by Mike?,N,,0,13,Mike,5,2,4,12,1,4,12,448,1562900532163,N,1668,1
204,2,7,filler,filler_25,,/+/The suitcase which Mike bought has been broken down by his son./,Has the suitcase been broken by Mike?,N,,0,13,bought,6,2,5,12,1,5,12,600,1562900532763,N,1668,1
204,2,7,filler,filler_25,,/+/The suitcase which Mike bought has been broken down by his son./,Has the suitcase been broken by Mike?,N,,0,13,has,7,2,6,12,1,6,12,1160,1562900533923,N,1668,1
204,2,7,filler,filler_25,,/+/The suitcase which Mike bought has been broken down by his son./,Has the suitcase been broken by Mike?,N,,0,13,been,8,2,7,12,1,7,12,1872,1562900535795,N,1668,1
204,2,7,filler,filler_25,,/+/The suitcase which Mike bought has been broken down by his son./,Has the suitcase been broken by Mike?,N,,0,13,broken,9,2,8,12,1,8,12,736,1562900536531,N,1668,1
204,2,7,filler,filler_25,,/+/The suitcase which Mike bought has been broken down by his son./,Has the suitcase been broken by Mike?,N,,0,13,down,10,2,9,12,1,9,12,496,1562900537027,N,1668,1
204,2,7,filler,filler_25,,/+/The suitcase which Mike bought has been broken down by his son./,Has the suitcase been broken by Mike?,N,,0,13,by,11,2,10,12,1,10,12,624,1562900537651,N,1668,1
204,2,7,filler,filler_25,,/+/The suitcase which Mike bought has been broken down by his son./,Has the suitcase been broken by Mike?,N,,0,13,his,12,2,11,12,1,11,12,480,1562900538131,N,1668,1
204,2,7,filler,filler_25,,/+/The suitcase which Mike bought has been broken down by his son./,Has the suitcase been broken by Mike?,N,,0,13,son.,13,2,12,12,1,12,12,2048,1562900540179,N,1668,1
204,2,8,filler,filler_24,,/+/The roommate has married the man who comes from the west of China./,Has the roommate married?,Y,,0,14,+,1,1,1,1,1,1,1,344,1562900542691,Y,2419,1
204,2,8,filler,filler_24,,/+/The roommate has married the man who comes from the west of China./,Has the roommate married?,Y,,0,14,The,2,2,1,13,1,1,13,280,1562900542971,Y,2419,1
204,2,8,filler,filler_24,,/+/The roommate has married the man who comes from the west of China./,Has the roommate married?,Y,,0,14,roommate,3,2,2,13,1,2,13,240,1562900543211,Y,2419,1
204,2,8,filler,filler_24,,/+/The roommate has married the man who comes from the west of China./,Has the roommate married?,Y,,0,14,has,4,2,3,13,1,3,13,472,1562900543683,Y,2419,1
204,2,8,filler,filler_24,,/+/The roommate has married the man who comes from the west of China./,Has the roommate married?,Y,,0,14,married,5,2,4,13,1,4,13,649,1562900544332,Y,2419,1
204,2,8,filler,filler_24,,/+/The roommate has married the man who comes from the west of China./,Has the roommate married?,Y,,0,14,the,6,2,5,13,1,5,13,384,1562900544716,Y,2419,1
204,2,8,filler,filler_24,,/+/The roommate has married the man who comes from the west of China./,Has the roommate married?,Y,,0,14,man,7,2,6,13,1,6,13,919,1562900545635,Y,2419,1
204,2,8,filler,filler_24,,/+/The roommate has married the man who comes from the west of China./,Has the roommate married?,Y,,0,14,who,8,2,7,13,1,7,13,575,1562900546211,Y,2419,1
204,2,8,filler,filler_24,,/+/The roommate has married the man who comes from the west of China./,Has the roommate married?,Y,,0,14,comes,9,2,8,13,1,8,13,511,1562900546723,Y,2419,1
204,2,8,filler,filler_24,,/+/The roommate has married the man who comes from the west of China./,Has the roommate married?,Y,,0,14,from,10,2,9,13,1,9,13,487,1562900547211,Y,2419,1
204,2,8,filler,filler_24,,/+/The roommate has married the man who comes from the west of China./,Has the roommate married?,Y,,0,14,the,11,2,10,13,1,10,13,440,1562900547651,Y,2419,1
204,2,8,filler,filler_24,,/+/The roommate has married the man who comes from the west of China./,Has the roommate married?,Y,,0,14,west,12,2,11,13,1,11,13,567,1562900548219,Y,2419,1
204,2,8,filler,filler_24,,/+/The roommate has married the man who comes from the west of China./,Has the roommate married?,Y,,0,14,of,13,2,12,13,1,12,13,449,1562900548668,Y,2419,1
204,2,8,filler,filler_24,,/+/The roommate has married the man who comes from the west of China./,Has the roommate married?,Y,,0,14,China.,14,2,13,13,1,13,13,2775,1562900551443,Y,2419,1
204,2,9,target,target_15,C,/+/The confused student * who was * asked about a question * lowered * his head silently./,Did the student ask about a question?,N,,0,15,+,1,1,1,1,1,1,1,391,1562900554755,N,2556,1
204,2,9,target,target_15,C,/+/The confused student * who was * asked about a question * lowered * his head silently./,Did the student ask about a question?,N,,0,15,The,2,2,1,13,1,1,3,408,1562900555163,N,2556,1
204,2,9,target,target_15,C,/+/The confused student * who was * asked about a question * lowered * his head silently./,Did the student ask about a question?,N,,0,15,confused,3,2,2,13,1,2,3,472,1562900555635,N,2556,1
204,2,9,target,target_15,C,/+/The confused student * who was * asked about a question * lowered * his head silently./,Did the student ask about a question?,N,,0,15,student,4,2,3,13,1,3,3,416,1562900556051,N,2556,1
204,2,9,target,target_15,C,/+/The confused student * who was * asked about a question * lowered * his head silently./,Did the student ask about a question?,N,,0,15,who,5,2,4,13,2,1,2,576,1562900556627,N,2556,1
204,2,9,target,target_15,C,/+/The confused student * who was * asked about a question * lowered * his head silently./,Did the student ask about a question?,N,,0,15,was,6,2,5,13,2,2,2,440,1562900557067,N,2556,1
204,2,9,target,target_15,C,/+/The confused student * who was * asked about a question * lowered * his head silently./,Did the student ask about a question?,N,,0,15,asked,7,2,6,13,3,1,4,1928,1562900558995,N,2556,1
204,2,9,target,target_15,C,/+/The confused student * who was * asked about a question * lowered * his head silently./,Did the student ask about a question?,N,,0,15,about,8,2,7,13,3,2,4,496,1562900559491,N,2556,1
204,2,9,target,target_15,C,/+/The confused student * who was * asked about a question * lowered * his head silently./,Did the student ask about a question?,N,,0,15,a,9,2,8,13,3,3,4,304,1562900559795,N,2556,1
204,2,9,target,target_15,C,/+/The confused student * who was * asked about a question * lowered * his head silently./,Did the student ask about a question?,N,,0,15,question,10,2,9,13,3,4,4,463,1562900560258,N,2556,1
204,2,9,target,target_15,C,/+/The confused student * who was * asked about a question * lowered * his head silently./,Did the student ask about a question?,N,,0,15,lowered,11,2,10,13,4,1,1,769,1562900561027,N,2556,1
204,2,9,target,target_15,C,/+/The confused student * who was * asked about a question * lowered * his head silently./,Did the student ask about a question?,N,,0,15,his,12,2,11,13,5,1,3,385,1562900561412,N,2556,1
204,2,9,target,target_15,C,/+/The confused student * who was * asked about a question * lowered * his head silently./,Did the student ask about a question?,N,,0,15,head,13,2,12,13,5,2,3,935,1562900562347,N,2556,1
204,2,9,target,target_15,C,/+/The confused student * who was * asked about a question * lowered * his head silently./,Did the student ask about a question?,N,,0,15,silently.,14,2,13,13,5,3,3,984,1562900563331,N,2556,1
204,2,10,filler,filler_22,,/+/The girl's life was saved because the doctor acted so well./,Did the girl die?,N,,0,16,+,1,1,1,1,1,1,1,472,1562900566859,N,1676,1
204,2,10,filler,filler_22,,/+/The girl's life was saved because the doctor acted so well./,Did the girl die?,N,,0,16,The,2,2,1,11,1,1,11,312,1562900567171,N,1676,1
204,2,10,filler,filler_22,,/+/The girl's life was saved because the doctor acted so well./,Did the girl die?,N,,0,16,girl's,3,2,2,11,1,2,11,416,1562900567587,N,1676,1
204,2,10,filler,filler_22,,/+/The girl's life was saved because the doctor acted so well./,Did the girl die?,N,,0,16,life,4,2,3,11,1,3,11,432,1562900568019,N,1676,1
204,2,10,filler,filler_22,,/+/The girl's life was saved because the doctor acted so well./,Did the girl die?,N,,0,16,was,5,2,4,11,1,4,11,528,1562900568547,N,1676,1
204,2,10,filler,filler_22,,/+/The girl's life was saved because the doctor acted so well./,Did the girl die?,N,,0,16,saved,6,2,5,11,1,5,11,544,1562900569091,N,1676,1
204,2,10,filler,filler_22,,/+/The girl's life was saved because the doctor acted so well./,Did the girl die?,N,,0,16,because,7,2,6,11,1,6,11,440,1562900569531,N,1676,1
204,2,10,filler,filler_22,,/+/The girl's life was saved because the doctor acted so well./,Did the girl die?,N,,0,16,the,8,2,7,11,1,7,11,464,1562900569995,N,1676,1
204,2,10,filler,filler_22,,/+/The girl's life was saved because the doctor acted so well./,Did the girl die?,N,,0,16,doctor,9,2,8,11,1,8,11,423,1562900570418,N,1676,1
204,2,10,filler,filler_22,,/+/The girl's life was saved because the doctor acted so well./,Did the girl die?,N,,0,16,acted,10,2,9,11,1,9,11,424,1562900570843,N,1676,1
204,2,10,filler,filler_22,,/+/The girl's life was saved because the doctor acted so well./,Did the girl die?,N,,0,16,so,11,2,10,11,1,10,11,400,1562900571243,N,1676,1
204,2,10,filler,filler_22,,/+/The girl's life was saved because the doctor acted so well./,Did the girl die?,N,,0,16,well.,12,2,11,11,1,11,11,1448,1562900572691,N,1676,1
204,2,11,target,target_4,C,/+/The convicted criminal * who was * watched at the railway station * was * following the boy./,Did someone watch the criminal?,Y,,0,17,+,1,1,1,1,1,1,1,375,1562900575243,Y,1964,1
204,2,11,target,target_4,C,/+/The convicted criminal * who was * watched at the railway station * was * following the boy./,Did someone watch the criminal?,Y,,0,17,The,2,2,1,14,1,1,3,239,1562900575482,Y,1964,1
204,2,11,target,target_4,C,/+/The convicted criminal * who was * watched at the railway station * was * following the boy./,Did someone watch the criminal?,Y,,0,17,convicted,3,2,2,14,1,2,3,609,1562900576091,Y,1964,1
204,2,11,target,target_4,C,/+/The convicted criminal * who was * watched at the railway station * was * following the boy./,Did someone watch the criminal?,Y,,0,17,criminal,4,2,3,14,1,3,3,512,1562900576603,Y,1964,1
204,2,11,target,target_4,C,/+/The convicted criminal * who was * watched at the railway station * was * following the boy./,Did someone watch the criminal?,Y,,0,17,who,5,2,4,14,2,1,2,472,1562900577075,Y,1964,1
204,2,11,target,target_4,C,/+/The convicted criminal * who was * watched at the railway station * was * following the boy./,Did someone watch the criminal?,Y,,0,17,was,6,2,5,14,2,2,2,447,1562900577522,Y,1964,1
204,2,11,target,target_4,C,/+/The convicted criminal * who was * watched at the railway station * was * following the boy./,Did someone watch the criminal?,Y,,0,17,watched,7,2,6,14,3,1,5,537,1562900578059,Y,1964,1
204,2,11,target,target_4,C,/+/The convicted criminal * who was * watched at the railway station * was * following the boy./,Did someone watch the criminal?,Y,,0,17,at,8,2,7,14,3,2,5,543,1562900578602,Y,1964,1
204,2,11,target,target_4,C,/+/The convicted criminal * who was * watched at the railway station * was * following the boy./,Did someone watch the criminal?,Y,,0,17,the,9,2,8,14,3,3,5,386,1562900578988,Y,1964,1
204,2,11,target,target_4,C,/+/The convicted criminal * who was * watched at the railway station * was * following the boy./,Did someone watch the criminal?,Y,,0,17,railway,10,2,9,14,3,4,5,776,1562900579764,Y,1964,1
204,2,11,target,target_4,C,/+/The convicted criminal * who was * watched at the railway station * was * following the boy./,Did someone watch the criminal?,Y,,0,17,station,11,2,10,14,3,5,5,543,1562900580307,Y,1964,1
204,2,11,target,target_4,C,/+/The convicted criminal * who was * watched at the railway station * was * following the boy./,Did someone watch the criminal?,Y,,0,17,was,12,2,11,14,4,1,1,559,1562900580867,Y,1964,1
204,2,11,target,target_4,C,/+/The convicted criminal * who was * watched at the railway station * was * following the boy./,Did someone watch the criminal?,Y,,0,17,following,13,2,12,14,5,1,3,655,1562900581523,Y,1964,1
204,2,11,target,target_4,C,/+/The convicted criminal * who was * watched at the railway station * was * following the boy./,Did someone watch the criminal?,Y,,0,17,the,14,2,13,14,5,2,3,424,1562900581947,Y,1964,1
204,2,11,target,target_4,C,/+/The convicted criminal * who was * watched at the railway station * was * following the boy./,Did someone watch the criminal?,Y,,0,17,boy.,15,2,14,14,5,3,3,3375,1562900585323,Y,1964,1
204,2,11,target,target_4,C,/+/The convicted criminal * who was * watched at the railway station * was * following the boy./,Did someone watch the criminal?,Y,,0,17,the,16,2,13,14,5,2,3,499,1562900585822,Y,1964,1
204,2,11,target,target_4,C,/+/The convicted criminal * who was * watched at the railway station * was * following the boy./,Did someone watch the criminal?,Y,,0,17,following,17,2,12,14,5,1,3,32,1562900585855,Y,1964,1
204,2,11,target,target_4,C,/+/The convicted criminal * who was * watched at the railway station * was * following the boy./,Did someone watch the criminal?,Y,,0,17,was,18,2,11,14,4,1,1,34,1562900585889,Y,1964,1
204,2,11,target,target_4,C,/+/The convicted criminal * who was * watched at the railway station * was * following the boy./,Did someone watch the criminal?,Y,,0,17,station,19,2,10,14,3,5,5,32,1562900585921,Y,1964,1
204,2,11,target,target_4,C,/+/The convicted criminal * who was * watched at the railway station * was * following the boy./,Did someone watch the criminal?,Y,,0,17,railway,20,2,9,14,3,4,5,32,1562900585954,Y,1964,1
204,2,11,target,target_4,C,/+/The convicted criminal * who was * watched at the railway station * was * following the boy./,Did someone watch the criminal?,Y,,0,17,the,21,2,8,14,3,3,5,32,1562900585987,Y,1964,1
204,2,11,target,target_4,C,/+/The convicted criminal * who was * watched at the railway station * was * following the boy./,Did someone watch the criminal?,Y,,0,17,at,22,2,7,14,3,2,5,32,1562900586020,Y,1964,1
204,2,11,target,target_4,C,/+/The convicted criminal * who was * watched at the railway station * was * following the boy./,Did someone watch the criminal?,Y,,0,17,watched,23,2,6,14,3,1,5,335,1562900586355,Y,1964,1
204,2,11,target,target_4,C,/+/The convicted criminal * who was * watched at the railway station * was * following the boy./,Did someone watch the criminal?,Y,,0,17,was,24,2,5,14,2,2,2,320,1562900586675,Y,1964,1
204,2,11,target,target_4,C,/+/The convicted criminal * who was * watched at the railway station * was * following the boy./,Did someone watch the criminal?,Y,,0,17,who,25,2,4,14,2,1,2,344,1562900587019,Y,1964,1
204,2,11,target,target_4,C,/+/The convicted criminal * who was * watched at the railway station * was * following the boy./,Did someone watch the criminal?,Y,,0,17,criminal,26,2,3,14,1,3,3,496,1562900587515,Y,1964,1
204,2,11,target,target_4,C,/+/The convicted criminal * who was * watched at the railway station * was * following the boy./,Did someone watch the criminal?,Y,,0,17,who,27,2,4,14,2,1,2,384,1562900587899,Y,1964,1
204,2,11,target,target_4,C,/+/The convicted criminal * who was * watched at the railway station * was * following the boy./,Did someone watch the criminal?,Y,,0,17,was,28,2,5,14,2,2,2,232,1562900588131,Y,1964,1
204,2,11,target,target_4,C,/+/The convicted criminal * who was * watched at the railway station * was * following the boy./,Did someone watch the criminal?,Y,,0,17,watched,29,2,6,14,3,1,5,224,1562900588355,Y,1964,1
204,2,11,target,target_4,C,/+/The convicted criminal * who was * watched at the railway station * was * following the boy./,Did someone watch the criminal?,Y,,0,17,at,30,2,7,14,3,2,5,288,1562900588643,Y,1964,1
204,2,11,target,target_4,C,/+/The convicted criminal * who was * watched at the railway station * was * following the boy./,Did someone watch the criminal?,Y,,0,17,the,31,2,8,14,3,3,5,344,1562900588987,Y,1964,1
204,2,11,target,target_4,C,/+/The convicted criminal * who was * watched at the railway station * was * following the boy./,Did someone watch the criminal?,Y,,0,17,railway,32,2,9,14,3,4,5,256,1562900589243,Y,1964,1
204,2,11,target,target_4,C,/+/The convicted criminal * who was * watched at the railway station * was * following the boy./,Did someone watch the criminal?,Y,,0,17,station,33,2,10,14,3,5,5,520,1562900589763,Y,1964,1
204,2,11,target,target_4,C,/+/The convicted criminal * who was * watched at the railway station * was * following the boy./,Did someone watch the criminal?,Y,,0,17,was,34,2,11,14,4,1,1,312,1562900590075,Y,1964,1
204,2,11,target,target_4,C,/+/The convicted criminal * who was * watched at the railway station * was * following the boy./,Did someone watch the criminal?,Y,,0,17,following,35,2,12,14,5,1,3,536,1562900590611,Y,1964,1
204,2,11,target,target_4,C,/+/The convicted criminal * who was * watched at the railway station * was * following the boy./,Did someone watch the criminal?,Y,,0,17,the,36,2,13,14,5,2,3,368,1562900590979,Y,1964,1
204,2,11,target,target_4,C,/+/The convicted criminal * who was * watched at the railway station * was * following the boy./,Did someone watch the criminal?,Y,,0,17,boy.,37,2,14,14,5,3,3,2560,1562900593539,Y,1964,1
204,2,12,filler,filler_35,,/+/The company building was completed successfully in the third quarter./,Was the company building completed?,Y,,0,18,+,1,1,1,1,1,1,1,384,1562900596388,Y,2596,1
204,2,12,filler,filler_35,,/+/The company building was completed successfully in the third quarter./,Was the company building completed?,Y,,0,18,The,2,2,1,10,1,1,10,264,1562900596652,Y,2596,1
204,2,12,filler,filler_35,,/+/The company building was completed successfully in the third quarter./,Was the company building completed?,Y,,0,18,company,3,2,2,10,1,2,10,288,1562900596940,Y,2596,1
204,2,12,filler,filler_35,,/+/The company building was completed successfully in the third quarter./,Was the company building completed?,Y,,0,18,building,4,2,3,10,1,3,10,408,1562900597348,Y,2596,1
204,2,12,filler,filler_35,,/+/The company building was completed successfully in the third quarter./,Was the company building completed?,Y,,0,18,was,5,2,4,10,1,4,10,680,1562900598028,Y,2596,1
204,2,12,filler,filler_35,,/+/The company building was completed successfully in the third quarter./,Was the company building completed?,Y,,0,18,completed,6,2,5,10,1,5,10,2767,1562900600795,Y,2596,1
204,2,12,filler,filler_35,,/+/The company building was completed successfully in the third quarter./,Was the company building completed?,Y,,0,18,successfully,7,2,6,10,1,6,10,1592,1562900602387,Y,2596,1
204,2,12,filler,filler_35,,/+/The company building was completed successfully in the third quarter./,Was the company building completed?,Y,,0,18,in,8,2,7,10,1,7,10,456,1562900602843,Y,2596,1
204,2,12,filler,filler_35,,/+/The company building was completed successfully in the third quarter./,Was the company building completed?,Y,,0,18,the,9,2,8,10,1,8,10,392,1562900603235,Y,2596,1
204,2,12,filler,filler_35,,/+/The company building was completed successfully in the third quarter./,Was the company building completed?,Y,,0,18,third,10,2,9,10,1,9,10,744,1562900603979,Y,2596,1
204,2,12,filler,filler_35,,/+/The company building was completed successfully in the third quarter./,Was the company building completed?,Y,,0,18,quarter.,11,2,10,10,1,10,10,3264,1562900607243,Y,2596,1
204,2,13,target,target_8,G,/+/The older kids * showed all the dances * felt * amazed at the party./,Did the older kids show the dances?,N,,0,19,+,1,1,1,1,1,1,1,423,1562900610763,N,1732,1
204,2,13,target,target_8,G,/+/The older kids * showed all the dances * felt * amazed at the party./,Did the older kids show the dances?,N,,0,19,The,2,2,1,12,1,1,3,263,1562900611026,N,1732,1
204,2,13,target,target_8,G,/+/The older kids * showed all the dances * felt * amazed at the party./,Did the older kids show the dances?,N,,0,19,older,3,2,2,12,1,2,3,281,1562900611307,N,1732,1
204,2,13,target,target_8,G,/+/The older kids * showed all the dances * felt * amazed at the party./,Did the older kids show the dances?,N,,0,19,kids,4,2,3,12,1,3,3,376,1562900611683,N,1732,1
204,2,13,target,target_8,G,/+/The older kids * showed all the dances * felt * amazed at the party./,Did the older kids show the dances?,N,,0,19,showed,5,2,4,12,2,1,4,584,1562900612267,N,1732,1
204,2,13,target,target_8,G,/+/The older kids * showed all the dances * felt * amazed at the party./,Did the older kids show the dances?,N,,0,19,all,6,2,5,12,2,2,4,496,1562900612763,N,1732,1
204,2,13,target,target_8,G,/+/The older kids * showed all the dances * felt * amazed at the party./,Did the older kids show the dances?,N,,0,19,the,7,2,6,12,2,3,4,376,1562900613139,N,1732,1
204,2,13,target,target_8,G,/+/The older kids * showed all the dances * felt * amazed at the party./,Did the older kids show the dances?,N,,0,19,dances,8,2,7,12,2,4,4,2377,1562900615516,N,1732,1
204,2,13,target,target_8,G,/+/The older kids * showed all the dances * felt * amazed at the party./,Did the older kids show the dances?,N,,0,19,felt,9,2,8,12,3,1,1,1703,1562900617219,N,1732,1
204,2,13,target,target_8,G,/+/The older kids * showed all the dances * felt * amazed at the party./,Did the older kids show the dances?,N,,0,19,amazed,10,2,9,12,4,1,4,663,1562900617883,N,1732,1
204,2,13,target,target_8,G,/+/The older kids * showed all the dances * felt * amazed at the party./,Did the older kids show the dances?,N,,0,19,at,11,2,10,12,4,2,4,359,1562900618243,N,1732,1
204,2,13,target,target_8,G,/+/The older kids * showed all the dances * felt * amazed at the party./,Did the older kids show the dances?,N,,0,19,the,12,2,11,12,4,3,4,368,1562900618611,N,1732,1
204,2,13,target,target_8,G,/+/The older kids * showed all the dances * felt * amazed at the party./,Did the older kids show the dances?,N,,0,19,party.,13,2,12,12,4,4,4,3400,1562900622011,N,1732,1
204,2,14,filler,filler_27,,/+/The letter that came this morning was from a friendly classmate./,Did the letter arrive this morning?,Y,,0,20,+,1,1,1,1,1,1,1,407,1562900624651,Y,1986,1
204,2,14,filler,filler_27,,/+/The letter that came this morning was from a friendly classmate./,Did the letter arrive this morning?,Y,,0,20,The,2,2,1,11,1,1,11,224,1562900624875,Y,1986,1
204,2,14,filler,filler_27,,/+/The letter that came this morning was from a friendly classmate./,Did the letter arrive this morning?,Y,,0,20,letter,3,2,2,11,1,2,11,279,1562900625154,Y,1986,1
204,2,14,filler,filler_27,,/+/The letter that came this morning was from a friendly classmate./,Did the letter arrive this morning?,Y,,0,20,that,4,2,3,11,1,3,11,433,1562900625587,Y,1986,1
204,2,14,filler,filler_27,,/+/The letter that came this morning was from a friendly classmate./,Did the letter arrive this morning?,Y,,0,20,came,5,2,4,11,1,4,11,408,1562900625995,Y,1986,1
204,2,14,filler,filler_27,,/+/The letter that came this morning was from a friendly classmate./,Did the letter arrive this morning?,Y,,0,20,this,6,2,5,11,1,5,11,432,1562900626427,Y,1986,1
204,2,14,filler,filler_27,,/+/The letter that came this morning was from a friendly classmate./,Did the letter arrive this morning?,Y,,0,20,morning,7,2,6,11,1,6,11,1248,1562900627675,Y,1986,1
204,2,14,filler,filler_27,,/+/The letter that came this morning was from a friendly classmate./,Did the letter arrive this morning?,Y,,0,20,was,8,2,7,11,1,7,11,5449,1562900633124,Y,1986,1
204,2,14,filler,filler_27,,/+/The letter that came this morning was from a friendly classmate./,Did the letter arrive this morning?,Y,,0,20,morning,9,2,6,11,1,6,11,499,1562900633623,Y,1986,1
204,2,14,filler,filler_27,,/+/The letter that came this morning was from a friendly classmate./,Did the letter arrive this morning?,Y,,0,20,this,10,2,5,11,1,5,11,32,1562900633656,Y,1986,1
204,2,14,filler,filler_27,,/+/The letter that came this morning was from a friendly classmate./,Did the letter arrive this morning?,Y,,0,20,came,11,2,4,11,1,4,11,33,1562900633689,Y,1986,1
204,2,14,filler,filler_27,,/+/The letter that came this morning was from a friendly classmate./,Did the letter arrive this morning?,Y,,0,20,that,12,2,3,11,1,3,11,33,1562900633722,Y,1986,1
204,2,14,filler,filler_27,,/+/The letter that came this morning was from a friendly classmate./,Did the letter arrive this morning?,Y,,0,20,letter,13,2,2,11,1,2,11,328,1562900634051,Y,1986,1
204,2,14,filler,filler_27,,/+/The letter that came this morning was from a friendly classmate./,Did the letter arrive this morning?,Y,,0,20,The,14,2,1,11,1,1,11,647,1562900634699,Y,1986,1
204,2,14,filler,filler_27,,/+/The letter that came this morning was from a friendly classmate./,Did the letter arrive this morning?,Y,,0,20,letter,15,2,2,11,1,2,11,335,1562900635035,Y,1986,1
204,2,14,filler,filler_27,,/+/The letter that came this morning was from a friendly classmate./,Did the letter arrive this morning?,Y,,0,20,that,16,2,3,11,1,3,11,375,1562900635411,Y,1986,1
204,2,14,filler,filler_27,,/+/The letter that came this morning was from a friendly classmate./,Did the letter arrive this morning?,Y,,0,20,came,17,2,4,11,1,4,11,367,1562900635779,Y,1986,1
204,2,14,filler,filler_27,,/+/The letter that came this morning was from a friendly classmate./,Did the letter arrive this morning?,Y,,0,20,this,18,2,5,11,1,5,11,2327,1562900638107,Y,1986,1
204,2,14,filler,filler_27,,/+/The letter that came this morning was from a friendly classmate./,Did the letter arrive this morning?,Y,,0,20,morning,19,2,6,11,1,6,11,1184,1562900639291,Y,1986,1
204,2,14,filler,filler_27,,/+/The letter that came this morning was from a friendly classmate./,Did the letter arrive this morning?,Y,,0,20,was,20,2,7,11,1,7,11,416,1562900639707,Y,1986,1
204,2,14,filler,filler_27,,/+/The letter that came this morning was from a friendly classmate./,Did the letter arrive this morning?,Y,,0,20,from,21,2,8,11,1,8,11,424,1562900640131,Y,1986,1
204,2,14,filler,filler_27,,/+/The letter that came this morning was from a friendly classmate./,Did the letter arrive this morning?,Y,,0,20,a,22,2,9,11,1,9,11,368,1562900640499,Y,1986,1
204,2,14,filler,filler_27,,/+/The letter that came this morning was from a friendly classmate./,Did the letter arrive this morning?,Y,,0,20,friendly,23,2,10,11,1,10,11,440,1562900640939,Y,1986,1
204,2,14,filler,filler_27,,/+/The letter that came this morning was from a friendly classmate./,Did the letter arrive this morning?,Y,,0,20,classmate.,24,2,11,11,1,11,11,1064,1562900642003,Y,1986,1
204,2,15,filler,filler_15,,/+/The book contained many useful information which could benefit the health./,Could the book be helpful for health?,Y,,0,21,+,1,1,1,1,1,1,1,400,1562900644891,Y,1419,1
204,2,15,filler,filler_15,,/+/The book contained many useful information which could benefit the health./,Could the book be helpful for health?,Y,,0,21,The,2,2,1,11,1,1,11,336,1562900645227,Y,1419,1
204,2,15,filler,filler_15,,/+/The book contained many useful information which could benefit the health./,Could the book be helpful for health?,Y,,0,21,book,3,2,2,11,1,2,11,255,1562900645482,Y,1419,1
204,2,15,filler,filler_15,,/+/The book contained many useful information which could benefit the health./,Could the book be helpful for health?,Y,,0,21,contained,4,2,3,11,1,3,11,857,1562900646339,Y,1419,1
204,2,15,filler,filler_15,,/+/The book contained many useful information which could benefit the health./,Could the book be helpful for health?,Y,,0,21,many,5,2,4,11,1,4,11,296,1562900646635,Y,1419,1
204,2,15,filler,filler_15,,/+/The book contained many useful information which could benefit the health./,Could the book be helpful for health?,Y,,0,21,useful,6,2,5,11,1,5,11,768,1562900647403,Y,1419,1
204,2,15,filler,filler_15,,/+/The book contained many useful information which could benefit the health./,Could the book be helpful for health?,Y,,0,21,information,7,2,6,11,1,6,11,488,1562900647891,Y,1419,1
204,2,15,filler,filler_15,,/+/The book contained many useful information which could benefit the health./,Could the book be helpful for health?,Y,,0,21,which,8,2,7,11,1,7,11,480,1562900648371,Y,1419,1
204,2,15,filler,filler_15,,/+/The book contained many useful information which could benefit the health./,Could the book be helpful for health?,Y,,0,21,could,9,2,8,11,1,8,11,393,1562900648764,Y,1419,1
204,2,15,filler,filler_15,,/+/The book contained many useful information which could benefit the health./,Could the book be helpful for health?,Y,,0,21,benefit,10,2,9,11,1,9,11,432,1562900649196,Y,1419,1
204,2,15,filler,filler_15,,/+/The book contained many useful information which could benefit the health./,Could the book be helpful for health?,Y,,0,21,the,11,2,10,11,1,10,11,408,1562900649604,Y,1419,1
204,2,15,filler,filler_15,,/+/The book contained many useful information which could benefit the health./,Could the book be helpful for health?,Y,,0,21,health.,12,2,11,11,1,11,11,1527,1562900651131,Y,1419,1
204,2,16,target,target_6,C,/+/The six volunteers * who were * taught the complicated procedure * became * very good students./,Did the volunteers teach the procedure?,N,,0,22,+,1,1,1,1,1,1,1,375,1562900653427,N,1852,1
204,2,16,target,target_6,C,/+/The six volunteers * who were * taught the complicated procedure * became * very good students./,Did the volunteers teach the procedure?,N,,0,22,The,2,2,1,13,1,1,3,295,1562900653723,N,1852,1
204,2,16,target,target_6,C,/+/The six volunteers * who were * taught the complicated procedure * became * very good students./,Did the volunteers teach the procedure?,N,,0,22,six,3,2,2,13,1,2,3,232,1562900653955,N,1852,1
204,2,16,target,target_6,C,/+/The six volunteers * who were * taught the complicated procedure * became * very good students./,Did the volunteers teach the procedure?,N,,0,22,volunteers,4,2,3,13,1,3,3,248,1562900654203,N,1852,1
204,2,16,target,target_6,C,/+/The six volunteers * who were * taught the complicated procedure * became * very good students./,Did the volunteers teach the procedure?,N,,0,22,who,5,2,4,13,2,1,2,480,1562900654683,N,1852,1
204,2,16,target,target_6,C,/+/The six volunteers * who were * taught the complicated procedure * became * very good students./,Did the volunteers teach the procedure?,N,,0,22,were,6,2,5,13,2,2,2,560,1562900655243,N,1852,1
204,2,16,target,target_6,C,/+/The six volunteers * who were * taught the complicated procedure * became * very good students./,Did the volunteers teach the procedure?,N,,0,22,taught,7,2,6,13,3,1,4,384,1562900655627,N,1852,1
204,2,16,target,target_6,C,/+/The six volunteers * who were * taught the complicated procedure * became * very good students./,Did the volunteers teach the procedure?,N,,0,22,the,8,2,7,13,3,2,4,696,1562900656323,N,1852,1
204,2,16,target,target_6,C,/+/The six volunteers * who were * taught the complicated procedure * became * very good students./,Did the volunteers teach the procedure?,N,,0,22,complicated,9,2,8,13,3,3,4,648,1562900656971,N,1852,1
204,2,16,target,target_6,C,/+/The six volunteers * who were * taught the complicated procedure * became * very good students./,Did the volunteers teach the procedure?,N,,0,22,procedure,10,2,9,13,3,4,4,720,1562900657691,N,1852,1
204,2,16,target,target_6,C,/+/The six volunteers * who were * taught the complicated procedure * became * very good students./,Did the volunteers teach the procedure?,N,,0,22,became,11,2,10,13,4,1,1,472,1562900658163,N,1852,1
204,2,16,target,target_6,C,/+/The six volunteers * who were * taught the complicated procedure * became * very good students./,Did the volunteers teach the procedure?,N,,0,22,very,12,2,11,13,5,1,3,408,1562900658571,N,1852,1
204,2,16,target,target_6,C,/+/The six volunteers * who were * taught the complicated procedure * became * very good students./,Did the volunteers teach the procedure?,N,,0,22,good,13,2,12,13,5,2,3,472,1562900659043,N,1852,1
204,2,16,target,target_6,C,/+/The six volunteers * who were * taught the complicated procedure * became * very good students./,Did the volunteers teach the procedure?,N,,0,22,students.,14,2,13,13,5,3,3,2800,1562900661843,N,1852,1
204,2,17,filler,filler_5,,/+/The author said that the new book was based on a real story./,Was the book entirely imaginary? ,N,,0,23,+,1,1,1,1,1,1,1,431,1562900664627,N,2115,1
204,2,17,filler,filler_5,,/+/The author said that the new book was based on a real story./,Was the book entirely imaginary? ,N,,0,23,The,2,2,1,13,1,1,13,216,1562900664843,N,2115,1
204,2,17,filler,filler_5,,/+/The author said that the new book was based on a real story./,Was the book entirely imaginary? ,N,,0,23,author,3,2,2,13,1,2,13,272,1562900665115,N,2115,1
204,2,17,filler,filler_5,,/+/The author said that the new book was based on a real story./,Was the book entirely imaginary? ,N,,0,23,said,4,2,3,13,1,3,13,464,1562900665579,N,2115,1
204,2,17,filler,filler_5,,/+/The author said that the new book was based on a real story./,Was the book entirely imaginary? ,N,,0,23,that,5,2,4,13,1,4,13,545,1562900666124,N,2115,1
204,2,17,filler,filler_5,,/+/The author said that the new book was based on a real story./,Was the book entirely imaginary? ,N,,0,23,the,6,2,5,13,1,5,13,400,1562900666524,N,2115,1
204,2,17,filler,filler_5,,/+/The author said that the new book was based on a real story./,Was the book entirely imaginary? ,N,,0,23,new,7,2,6,13,1,6,13,344,1562900666868,N,2115,1
204,2,17,filler,filler_5,,/+/The author said that the new book was based on a real story./,Was the book entirely imaginary? ,N,,0,23,book,8,2,7,13,1,7,13,304,1562900667172,N,2115,1
204,2,17,filler,filler_5,,/+/The author said that the new book was based on a real story./,Was the book entirely imaginary? ,N,,0,23,was,9,2,8,13,1,8,13,360,1562900667532,N,2115,1
204,2,17,filler,filler_5,,/+/The author said that the new book was based on a real story./,Was the book entirely imaginary? ,N,,0,23,based,10,2,9,13,1,9,13,392,1562900667924,N,2115,1
204,2,17,filler,filler_5,,/+/The author said that the new book was based on a real story./,Was the book entirely imaginary? ,N,,0,23,on,11,2,10,13,1,10,13,448,1562900668372,N,2115,1
204,2,17,filler,filler_5,,/+/The author said that the new book was based on a real story./,Was the book entirely imaginary? ,N,,0,23,a,12,2,11,13,1,11,13,311,1562900668683,N,2115,1
204,2,17,filler,filler_5,,/+/The author said that the new book was based on a real story./,Was the book entirely imaginary? ,N,,0,23,real,13,2,12,13,1,12,13,383,1562900669067,N,2115,1
204,2,17,filler,filler_5,,/+/The author said that the new book was based on a real story./,Was the book entirely imaginary? ,N,,0,23,story.,14,2,13,13,1,13,13,447,1562900669515,N,2115,1
204,2,18,filler,filler_38,,/+/The gatekeeper refused to hand over the door key to the man./,Did the gatekeeper refuse to hand over the key?,Y,,0,24,+,1,1,1,1,1,1,1,383,1562900672515,Y,1972,1
204,2,18,filler,filler_38,,/+/The gatekeeper refused to hand over the door key to the man./,Did the gatekeeper refuse to hand over the key?,Y,,0,24,The,2,2,1,12,1,1,12,248,1562900672763,Y,1972,1
204,2,18,filler,filler_38,,/+/The gatekeeper refused to hand over the door key to the man./,Did the gatekeeper refuse to hand over the key?,Y,,0,24,gatekeeper,3,2,2,12,1,2,12,256,1562900673019,Y,1972,1
204,2,18,filler,filler_38,,/+/The gatekeeper refused to hand over the door key to the man./,Did the gatekeeper refuse to hand over the key?,Y,,0,24,refused,4,2,3,12,1,3,12,480,1562900673499,Y,1972,1
204,2,18,filler,filler_38,,/+/The gatekeeper refused to hand over the door key to the man./,Did the gatekeeper refuse to hand over the key?,Y,,0,24,gatekeeper,5,2,2,12,1,2,12,1248,1562900674747,Y,1972,1
204,2,18,filler,filler_38,,/+/The gatekeeper refused to hand over the door key to the man./,Did the gatekeeper refuse to hand over the key?,Y,,0,24,refused,6,2,3,12,1,3,12,376,1562900675123,Y,1972,1
204,2,18,filler,filler_38,,/+/The gatekeeper refused to hand over the door key to the man./,Did the gatekeeper refuse to hand over the key?,Y,,0,24,to,7,2,4,12,1,4,12,376,1562900675499,Y,1972,1
204,2,18,filler,filler_38,,/+/The gatekeeper refused to hand over the door key to the man./,Did the gatekeeper refuse to hand over the key?,Y,,0,24,hand,8,2,5,12,1,5,12,688,1562900676187,Y,1972,1
204,2,18,filler,filler_38,,/+/The gatekeeper refused to hand over the door key to the man./,Did the gatekeeper refuse to hand over the key?,Y,,0,24,over,9,2,6,12,1,6,12,1152,1562900677339,Y,1972,1
204,2,18,filler,filler_38,,/+/The gatekeeper refused to hand over the door key to the man./,Did the gatekeeper refuse to hand over the key?,Y,,0,24,the,10,2,7,12,1,7,12,472,1562900677811,Y,1972,1
204,2,18,filler,filler_38,,/+/The gatekeeper refused to hand over the door key to the man./,Did the gatekeeper refuse to hand over the key?,Y,,0,24,door,11,2,8,12,1,8,12,544,1562900678355,Y,1972,1
204,2,18,filler,filler_38,,/+/The gatekeeper refused to hand over the door key to the man./,Did the gatekeeper refuse to hand over the key?,Y,,0,24,key,12,2,9,12,1,9,12,440,1562900678795,Y,1972,1
204,2,18,filler,filler_38,,/+/The gatekeeper refused to hand over the door key to the man./,Did the gatekeeper refuse to hand over the key?,Y,,0,24,to,13,2,10,12,1,10,12,376,1562900679171,Y,1972,1
204,2,18,filler,filler_38,,/+/The gatekeeper refused to hand over the door key to the man./,Did the gatekeeper refuse to hand over the key?,Y,,0,24,the,14,2,11,12,1,11,12,360,1562900679531,Y,1972,1
204,2,18,filler,filler_38,,/+/The gatekeeper refused to hand over the door key to the man./,Did the gatekeeper refuse to hand over the key?,Y,,0,24,man.,15,2,12,12,1,12,12,1056,1562900680587,Y,1972,1
204,2,19,filler,filler_37,,/+/The tiger was caught after it ate two persons within one week./,Was the tiger caught?,Y,,0,25,+,1,1,1,1,1,1,1,391,1562900683451,Y,1332,1
204,2,19,filler,filler_37,,/+/The tiger was caught after it ate two persons within one week./,Was the tiger caught?,Y,,0,25,The,2,2,1,12,1,1,12,233,1562900683684,Y,1332,1
204,2,19,filler,filler_37,,/+/The tiger was caught after it ate two persons within one week./,Was the tiger caught?,Y,,0,25,tiger,3,2,2,12,1,2,12,488,1562900684172,Y,1332,1
204,2,19,filler,filler_37,,/+/The tiger was caught after it ate two persons within one week./,Was the tiger caught?,Y,,0,25,was,4,2,3,12,1,3,12,392,1562900684564,Y,1332,1
204,2,19,filler,filler_37,,/+/The tiger was caught after it ate two persons within one week./,Was the tiger caught?,Y,,0,25,caught,5,2,4,12,1,4,12,360,1562900684924,Y,1332,1
204,2,19,filler,filler_37,,/+/The tiger was caught after it ate two persons within one week./,Was the tiger caught?,Y,,0,25,after,6,2,5,12,1,5,12,432,1562900685356,Y,1332,1
204,2,19,filler,filler_37,,/+/The tiger was caught after it ate two persons within one week./,Was the tiger caught?,Y,,0,25,it,7,2,6,12,1,6,12,472,1562900685828,Y,1332,1
204,2,19,filler,filler_37,,/+/The tiger was caught after it ate two persons within one week./,Was the tiger caught?,Y,,0,25,ate,8,2,7,12,1,7,12,1071,1562900686899,Y,1332,1
204,2,19,filler,filler_37,,/+/The tiger was caught after it ate two persons within one week./,Was the tiger caught?,Y,,0,25,two,9,2,8,12,1,8,12,503,1562900687403,Y,1332,1
204,2,19,filler,filler_37,,/+/The tiger was caught after it ate two persons within one week./,Was the tiger caught?,Y,,0,25,persons,10,2,9,12,1,9,12,840,1562900688244,Y,1332,1
204,2,19,filler,filler_37,,/+/The tiger was caught after it ate two persons within one week./,Was the tiger caught?,Y,,0,25,within,11,2,10,12,1,10,12,495,1562900688739,Y,1332,1
204,2,19,filler,filler_37,,/+/The tiger was caught after it ate two persons within one week./,Was the tiger caught?,Y,,0,25,one,12,2,11,12,1,11,12,439,1562900689179,Y,1332,1
204,2,19,filler,filler_37,,/+/The tiger was caught after it ate two persons within one week./,Was the tiger caught?,Y,,0,25,week.,13,2,12,12,1,12,12,1976,1562900691155,Y,1332,1
204,2,20,target,target_7,G,/+/The old man * advised on the special diet * has * not responded./,Did the old man advise on the diet?,N,,0,26,+,1,1,1,1,1,1,1,305,1562900693331,N,1115,1
204,2,20,target,target_7,G,/+/The old man * advised on the special diet * has * not responded./,Did the old man advise on the diet?,N,,0,26,The,2,2,1,11,1,1,3,200,1562900693531,N,1115,1
204,2,20,target,target_7,G,/+/The old man * advised on the special diet * has * not responded./,Did the old man advise on the diet?,N,,0,26,old,3,2,2,11,1,2,3,304,1562900693835,N,1115,1
204,2,20,target,target_7,G,/+/The old man * advised on the special diet * has * not responded./,Did the old man advise on the diet?,N,,0,26,man,4,2,3,11,1,3,3,303,1562900694138,N,1115,1
204,2,20,target,target_7,G,/+/The old man * advised on the special diet * has * not responded./,Did the old man advise on the diet?,N,,0,26,advised,5,2,4,11,2,1,5,248,1562900694387,N,1115,1
204,2,20,target,target_7,G,/+/The old man * advised on the special diet * has * not responded./,Did the old man advise on the diet?,N,,0,26,on,6,2,5,11,2,2,5,775,1562900695162,N,1115,1
204,2,20,target,target_7,G,/+/The old man * advised on the special diet * has * not responded./,Did the old man advise on the diet?,N,,0,26,the,7,2,6,11,2,3,5,1480,1562900696643,N,1115,1
204,2,20,target,target_7,G,/+/The old man * advised on the special diet * has * not responded./,Did the old man advise on the diet?,N,,0,26,special,8,2,7,11,2,4,5,591,1562900697234,N,1115,1
204,2,20,target,target_7,G,/+/The old man * advised on the special diet * has * not responded./,Did the old man advise on the diet?,N,,0,26,diet,9,2,8,11,2,5,5,449,1562900697683,N,1115,1
204,2,20,target,target_7,G,/+/The old man * advised on the special diet * has * not responded./,Did the old man advise on the diet?,N,,0,26,has,10,2,9,11,3,1,1,5583,1562900703266,N,1115,1
204,2,20,target,target_7,G,/+/The old man * advised on the special diet * has * not responded./,Did the old man advise on the diet?,N,,0,26,not,11,2,10,11,4,1,2,433,1562900703699,N,1115,1
204,2,20,target,target_7,G,/+/The old man * advised on the special diet * has * not responded./,Did the old man advise on the diet?,N,,0,26,responded.,12,2,11,11,4,2,2,3167,1562900706866,N,1115,1
204,2,21,filler,filler_18,,/+/The actual price of the clothes was much higher than the man had expected./,Was the price of the clothes low?,N,,0,27,+,1,1,1,1,1,1,1,439,1562900708922,N,3485,1
204,2,21,filler,filler_18,,/+/The actual price of the clothes was much higher than the man had expected./,Was the price of the clothes low?,N,,0,27,The,2,2,1,14,1,1,14,264,1562900709186,N,3485,1
204,2,21,filler,filler_18,,/+/The actual price of the clothes was much higher than the man had expected./,Was the price of the clothes low?,N,,0,27,actual,3,2,2,14,1,2,14,280,1562900709466,N,3485,1
204,2,21,filler,filler_18,,/+/The actual price of the clothes was much higher than the man had expected./,Was the price of the clothes low?,N,,0,27,price,4,2,3,14,1,3,14,679,1562900710146,N,3485,1
204,2,21,filler,filler_18,,/+/The actual price of the clothes was much higher than the man had expected./,Was the price of the clothes low?,N,,0,27,of,5,2,4,14,1,4,14,464,1562900710610,N,3485,1
204,2,21,filler,filler_18,,/+/The actual price of the clothes was much higher than the man had expected./,Was the price of the clothes low?,N,,0,27,the,6,2,5,14,1,5,14,528,1562900711138,N,3485,1
204,2,21,filler,filler_18,,/+/The actual price of the clothes was much higher than the man had expected./,Was the price of the clothes low?,N,,0,27,clothes,7,2,6,14,1,6,14,840,1562900711978,N,3485,1
204,2,21,filler,filler_18,,/+/The actual price of the clothes was much higher than the man had expected./,Was the price of the clothes low?,N,,0,27,was,8,2,7,14,1,7,14,368,1562900712346,N,3485,1
204,2,21,filler,filler_18,,/+/The actual price of the clothes was much higher than the man had expected./,Was the price of the clothes low?,N,,0,27,much,9,2,8,14,1,8,14,592,1562900712938,N,3485,1
204,2,21,filler,filler_18,,/+/The actual price of the clothes was much higher than the man had expected./,Was the price of the clothes low?,N,,0,27,higher,10,2,9,14,1,9,14,624,1562900713562,N,3485,1
204,2,21,filler,filler_18,,/+/The actual price of the clothes was much higher than the man had expected./,Was the price of the clothes low?,N,,0,27,than,11,2,10,14,1,10,14,400,1562900713962,N,3485,1
204,2,21,filler,filler_18,,/+/The actual price of the clothes was much higher than the man had expected./,Was the price of the clothes low?,N,,0,27,the,12,2,11,14,1,11,14,360,1562900714322,N,3485,1
204,2,21,filler,filler_18,,/+/The actual price of the clothes was much higher than the man had expected./,Was the price of the clothes low?,N,,0,27,man,13,2,12,14,1,12,14,408,1562900714730,N,3485,1
204,2,21,filler,filler_18,,/+/The actual price of the clothes was much higher than the man had expected./,Was the price of the clothes low?,N,,0,27,had,14,2,13,14,1,13,14,400,1562900715130,N,3485,1
204,2,21,filler,filler_18,,/+/The actual price of the clothes was much higher than the man had expected./,Was the price of the clothes low?,N,,0,27,expected.,15,2,14,14,1,14,14,1696,1562900716826,N,3485,1
204,2,22,target,target_9,C,/+/The famous scientist * who was * awarded an academic prize * expressed * his excitement./,Did the scientist award a prize？,N,,0,28,+,1,1,1,1,1,1,1,455,1562900721294,N,3475,1
204,2,22,target,target_9,C,/+/The famous scientist * who was * awarded an academic prize * expressed * his excitement./,Did the scientist award a prize？,N,,0,28,The,2,2,1,12,1,1,3,341,1562900721635,N,3475,1
204,2,22,target,target_9,C,/+/The famous scientist * who was * awarded an academic prize * expressed * his excitement./,Did the scientist award a prize？,N,,0,28,famous,3,2,2,12,1,2,3,495,1562900722130,N,3475,1
204,2,22,target,target_9,C,/+/The famous scientist * who was * awarded an academic prize * expressed * his excitement./,Did the scientist award a prize？,N,,0,28,scientist,4,2,3,12,1,3,3,287,1562900722418,N,3475,1
204,2,22,target,target_9,C,/+/The famous scientist * who was * awarded an academic prize * expressed * his excitement./,Did the scientist award a prize？,N,,0,28,who,5,2,4,12,2,1,2,471,1562900722890,N,3475,1
204,2,22,target,target_9,C,/+/The famous scientist * who was * awarded an academic prize * expressed * his excitement./,Did the scientist award a prize？,N,,0,28,was,6,2,5,12,2,2,2,255,1562900723146,N,3475,1
204,2,22,target,target_9,C,/+/The famous scientist * who was * awarded an academic prize * expressed * his excitement./,Did the scientist award a prize？,N,,0,28,awarded,7,2,6,12,3,1,4,495,1562900723642,N,3475,1
204,2,22,target,target_9,C,/+/The famous scientist * who was * awarded an academic prize * expressed * his excitement./,Did the scientist award a prize？,N,,0,28,an,8,2,7,12,3,2,4,424,1562900724066,N,3475,1
204,2,22,target,target_9,C,/+/The famous scientist * who was * awarded an academic prize * expressed * his excitement./,Did the scientist award a prize？,N,,0,28,academic,9,2,8,12,3,3,4,463,1562900724530,N,3475,1
204,2,22,target,target_9,C,/+/The famous scientist * who was * awarded an academic prize * expressed * his excitement./,Did the scientist award a prize？,N,,0,28,prize,10,2,9,12,3,4,4,440,1562900724970,N,3475,1
204,2,22,target,target_9,C,/+/The famous scientist * who was * awarded an academic prize * expressed * his excitement./,Did the scientist award a prize？,N,,0,28,expressed,11,2,10,12,4,1,1,664,1562900725634,N,3475,1
204,2,22,target,target_9,C,/+/The famous scientist * who was * awarded an academic prize * expressed * his excitement./,Did the scientist award a prize？,N,,0,28,his,12,2,11,12,5,1,2,488,1562900726122,N,3475,1
204,2,22,target,target_9,C,/+/The famous scientist * who was * awarded an academic prize * expressed * his excitement./,Did the scientist award a prize？,N,,0,28,excitement.,13,2,12,12,5,2,2,960,1562900727082,N,3475,1
204,2,23,filler,filler_2,,/+/The small town near Taipei was famous for its rich seafood resources./,Was the small town famous?,Y,,0,29,+,1,1,1,1,1,1,1,447,1562900731506,N,16524,0
204,2,23,filler,filler_2,,/+/The small town near Taipei was famous for its rich seafood resources./,Was the small town famous?,Y,,0,29,The,2,2,1,12,1,1,12,376,1562900731882,N,16524,0
204,2,23,filler,filler_2,,/+/The small town near Taipei was famous for its rich seafood resources./,Was the small town famous?,Y,,0,29,small,3,2,2,12,1,2,12,344,1562900732226,N,16524,0
204,2,23,filler,filler_2,,/+/The small town near Taipei was famous for its rich seafood resources./,Was the small town famous?,Y,,0,29,town,4,2,3,12,1,3,12,336,1562900732562,N,16524,0
204,2,23,filler,filler_2,,/+/The small town near Taipei was famous for its rich seafood resources./,Was the small town famous?,Y,,0,29,near,5,2,4,12,1,4,12,336,1562900732898,N,16524,0
204,2,23,filler,filler_2,,/+/The small town near Taipei was famous for its rich seafood resources./,Was the small town famous?,Y,,0,29,Taipei,6,2,5,12,1,5,12,424,1562900733322,N,16524,0
204,2,23,filler,filler_2,,/+/The small town near Taipei was famous for its rich seafood resources./,Was the small town famous?,Y,,0,29,was,7,2,6,12,1,6,12,544,1562900733866,N,16524,0
204,2,23,filler,filler_2,,/+/The small town near Taipei was famous for its rich seafood resources./,Was the small town famous?,Y,,0,29,Taipei,8,2,5,12,1,5,12,472,1562900734338,N,16524,0
204,2,23,filler,filler_2,,/+/The small town near Taipei was famous for its rich seafood resources./,Was the small town famous?,Y,,0,29,was,9,2,6,12,1,6,12,399,1562900734737,N,16524,0
204,2,23,filler,filler_2,,/+/The small town near Taipei was famous for its rich seafood resources./,Was the small town famous?,Y,,0,29,famous,10,2,7,12,1,7,12,577,1562900735314,N,16524,0
204,2,23,filler,filler_2,,/+/The small town near Taipei was famous for its rich seafood resources./,Was the small town famous?,Y,,0,29,for,11,2,8,12,1,8,12,368,1562900735682,N,16524,0
204,2,23,filler,filler_2,,/+/The small town near Taipei was famous for its rich seafood resources./,Was the small town famous?,Y,,0,29,its,12,2,9,12,1,9,12,385,1562900736067,N,16524,0
204,2,23,filler,filler_2,,/+/The small town near Taipei was famous for its rich seafood resources./,Was the small town famous?,Y,,0,29,rich,13,2,10,12,1,10,12,504,1562900736571,N,16524,0
204,2,23,filler,filler_2,,/+/The small town near Taipei was famous for its rich seafood resources./,Was the small town famous?,Y,,0,29,seafood,14,2,11,12,1,11,12,928,1562900737499,N,16524,0
204,2,23,filler,filler_2,,/+/The small town near Taipei was famous for its rich seafood resources./,Was the small town famous?,Y,,0,29,resources.,15,2,12,12,1,12,12,2695,1562900740194,N,16524,0
204,2,24,filler,filler_30,,/+/The pop star contributed four million to the Hope project yesterday./,Did the pop star donate money yesterday?,Y,,0,30,+,1,1,1,1,1,1,1,568,1562900757787,Y,2716,1
204,2,24,filler,filler_30,,/+/The pop star contributed four million to the Hope project yesterday./,Did the pop star donate money yesterday?,Y,,0,30,The,2,2,1,11,1,1,11,375,1562900758162,Y,2716,1
204,2,24,filler,filler_30,,/+/The pop star contributed four million to the Hope project yesterday./,Did the pop star donate money yesterday?,Y,,0,30,pop,3,2,2,11,1,2,11,303,1562900758466,Y,2716,1
204,2,24,filler,filler_30,,/+/The pop star contributed four million to the Hope project yesterday./,Did the pop star donate money yesterday?,Y,,0,30,star,4,2,3,11,1,3,11,959,1562900759426,Y,2716,1
204,2,24,filler,filler_30,,/+/The pop star contributed four million to the Hope project yesterday./,Did the pop star donate money yesterday?,Y,,0,30,contributed,5,2,4,11,1,4,11,1487,1562900760914,Y,2716,1
204,2,24,filler,filler_30,,/+/The pop star contributed four million to the Hope project yesterday./,Did the pop star donate money yesterday?,Y,,0,30,four,6,2,5,11,1,5,11,608,1562900761522,Y,2716,1
204,2,24,filler,filler_30,,/+/The pop star contributed four million to the Hope project yesterday./,Did the pop star donate money yesterday?,Y,,0,30,million,7,2,6,11,1,6,11,1016,1562900762538,Y,2716,1
204,2,24,filler,filler_30,,/+/The pop star contributed four million to the Hope project yesterday./,Did the pop star donate money yesterday?,Y,,0,30,to,8,2,7,11,1,7,11,376,1562900762914,Y,2716,1
204,2,24,filler,filler_30,,/+/The pop star contributed four million to the Hope project yesterday./,Did the pop star donate money yesterday?,Y,,0,30,the,9,2,8,11,1,8,11,433,1562900763347,Y,2716,1
204,2,24,filler,filler_30,,/+/The pop star contributed four million to the Hope project yesterday./,Did the pop star donate money yesterday?,Y,,0,30,Hope,10,2,9,11,1,9,11,536,1562900763883,Y,2716,1
204,2,24,filler,filler_30,,/+/The pop star contributed four million to the Hope project yesterday./,Did the pop star donate money yesterday?,Y,,0,30,project,11,2,10,11,1,10,11,552,1562900764435,Y,2716,1
204,2,24,filler,filler_30,,/+/The pop star contributed four million to the Hope project yesterday./,Did the pop star donate money yesterday?,Y,,0,30,yesterday.,12,2,11,11,1,11,11,1224,1562900765659,Y,2716,1
204,2,24,filler,filler_30,,/+/The pop star contributed four million to the Hope project yesterday./,Did the pop star donate money yesterday?,Y,,0,30,project,13,2,10,11,1,10,11,499,1562900766158,Y,2716,1
204,2,24,filler,filler_30,,/+/The pop star contributed four million to the Hope project yesterday./,Did the pop star donate money yesterday?,Y,,0,30,Hope,14,2,9,11,1,9,11,33,1562900766191,Y,2716,1
204,2,24,filler,filler_30,,/+/The pop star contributed four million to the Hope project yesterday./,Did the pop star donate money yesterday?,Y,,0,30,the,15,2,8,11,1,8,11,33,1562900766224,Y,2716,1
204,2,24,filler,filler_30,,/+/The pop star contributed four million to the Hope project yesterday./,Did the pop star donate money yesterday?,Y,,0,30,to,16,2,7,11,1,7,11,275,1562900766499,Y,2716,1
204,2,24,filler,filler_30,,/+/The pop star contributed four million to the Hope project yesterday./,Did the pop star donate money yesterday?,Y,,0,30,million,17,2,6,11,1,6,11,200,1562900766699,Y,2716,1
204,2,24,filler,filler_30,,/+/The pop star contributed four million to the Hope project yesterday./,Did the pop star donate money yesterday?,Y,,0,30,four,18,2,5,11,1,5,11,184,1562900766883,Y,2716,1
204,2,24,filler,filler_30,,/+/The pop star contributed four million to the Hope project yesterday./,Did the pop star donate money yesterday?,Y,,0,30,contributed,19,2,4,11,1,4,11,704,1562900767587,Y,2716,1
204,2,24,filler,filler_30,,/+/The pop star contributed four million to the Hope project yesterday./,Did the pop star donate money yesterday?,Y,,0,30,four,20,2,5,11,1,5,11,224,1562900767811,Y,2716,1
204,2,24,filler,filler_30,,/+/The pop star contributed four million to the Hope project yesterday./,Did the pop star donate money yesterday?,Y,,0,30,million,21,2,6,11,1,6,11,256,1562900768067,Y,2716,1
204,2,24,filler,filler_30,,/+/The pop star contributed four million to the Hope project yesterday./,Did the pop star donate money yesterday?,Y,,0,30,to,22,2,7,11,1,7,11,264,1562900768331,Y,2716,1
204,2,24,filler,filler_30,,/+/The pop star contributed four million to the Hope project yesterday./,Did the pop star donate money yesterday?,Y,,0,30,the,23,2,8,11,1,8,11,256,1562900768587,Y,2716,1
204,2,24,filler,filler_30,,/+/The pop star contributed four million to the Hope project yesterday./,Did the pop star donate money yesterday?,Y,,0,30,Hope,24,2,9,11,1,9,11,360,1562900768947,Y,2716,1
204,2,24,filler,filler_30,,/+/The pop star contributed four million to the Hope project yesterday./,Did the pop star donate money yesterday?,Y,,0,30,project,25,2,10,11,1,10,11,568,1562900769515,Y,2716,1
204,2,24,filler,filler_30,,/+/The pop star contributed four million to the Hope project yesterday./,Did the pop star donate money yesterday?,Y,,0,30,yesterday.,26,2,11,11,1,11,11,1016,1562900770531,Y,2716,1
204,2,25,target,target_10,G,/+/The skilled hunters * stopped killing wild animals * ended up * in prison./,Did somebody stop the hunters from killing?,Y,,0,31,+,1,1,1,1,1,1,1,376,1562900774124,Y,2947,1
204,2,25,target,target_10,G,/+/The skilled hunters * stopped killing wild animals * ended up * in prison./,Did somebody stop the hunters from killing?,Y,,0,31,The,2,2,1,11,1,1,3,239,1562900774363,Y,2947,1
204,2,25,target,target_10,G,/+/The skilled hunters * stopped killing wild animals * ended up * in prison./,Did somebody stop the hunters from killing?,Y,,0,31,skilled,3,2,2,11,1,2,3,241,1562900774604,Y,2947,1
204,2,25,target,target_10,G,/+/The skilled hunters * stopped killing wild animals * ended up * in prison./,Did somebody stop the hunters from killing?,Y,,0,31,hunters,4,2,3,11,1,3,3,1376,1562900775980,Y,2947,1
204,2,25,target,target_10,G,/+/The skilled hunters * stopped killing wild animals * ended up * in prison./,Did somebody stop the hunters from killing?,Y,,0,31,skilled,5,2,2,11,1,2,3,615,1562900776595,Y,2947,1
204,2,25,target,target_10,G,/+/The skilled hunters * stopped killing wild animals * ended up * in prison./,Did somebody stop the hunters from killing?,Y,,0,31,hunters,6,2,3,11,1,3,3,647,1562900777243,Y,2947,1
204,2,25,target,target_10,G,/+/The skilled hunters * stopped killing wild animals * ended up * in prison./,Did somebody stop the hunters from killing?,Y,,0,31,stopped,7,2,4,11,2,1,4,1352,1562900778595,Y,2947,1
204,2,25,target,target_10,G,/+/The skilled hunters * stopped killing wild animals * ended up * in prison./,Did somebody stop the hunters from killing?,Y,,0,31,killing,8,2,5,11,2,2,4,783,1562900779379,Y,2947,1
204,2,25,target,target_10,G,/+/The skilled hunters * stopped killing wild animals * ended up * in prison./,Did somebody stop the hunters from killing?,Y,,0,31,wild,9,2,6,11,2,3,4,392,1562900779771,Y,2947,1
204,2,25,target,target_10,G,/+/The skilled hunters * stopped killing wild animals * ended up * in prison./,Did somebody stop the hunters from killing?,Y,,0,31,animals,10,2,7,11,2,4,4,472,1562900780243,Y,2947,1
204,2,25,target,target_10,G,/+/The skilled hunters * stopped killing wild animals * ended up * in prison./,Did somebody stop the hunters from killing?,Y,,0,31,ended,11,2,8,11,3,1,2,448,1562900780691,Y,2947,1
204,2,25,target,target_10,G,/+/The skilled hunters * stopped killing wild animals * ended up * in prison./,Did somebody stop the hunters from killing?,Y,,0,31,up,12,2,9,11,3,2,2,2472,1562900783163,Y,2947,1
204,2,25,target,target_10,G,/+/The skilled hunters * stopped killing wild animals * ended up * in prison./,Did somebody stop the hunters from killing?,Y,,0,31,in,13,2,10,11,4,1,2,432,1562900783595,Y,2947,1
204,2,25,target,target_10,G,/+/The skilled hunters * stopped killing wild animals * ended up * in prison./,Did somebody stop the hunters from killing?,Y,,0,31,prison.,14,2,11,11,4,2,2,799,1562900784394,Y,2947,1
204,2,25,target,target_10,G,/+/The skilled hunters * stopped killing wild animals * ended up * in prison./,Did somebody stop the hunters from killing?,Y,,0,31,in,15,2,10,11,4,1,2,500,1562900784894,Y,2947,1
204,2,25,target,target_10,G,/+/The skilled hunters * stopped killing wild animals * ended up * in prison./,Did somebody stop the hunters from killing?,Y,,0,31,up,16,2,9,11,3,2,2,33,1562900784927,Y,2947,1
204,2,25,target,target_10,G,/+/The skilled hunters * stopped killing wild animals * ended up * in prison./,Did somebody stop the hunters from killing?,Y,,0,31,ended,17,2,8,11,3,1,2,33,1562900784960,Y,2947,1
204,2,25,target,target_10,G,/+/The skilled hunters * stopped killing wild animals * ended up * in prison./,Did somebody stop the hunters from killing?,Y,,0,31,animals,18,2,7,11,2,4,4,33,1562900784993,Y,2947,1
204,2,25,target,target_10,G,/+/The skilled hunters * stopped killing wild animals * ended up * in prison./,Did somebody stop the hunters from killing?,Y,,0,31,wild,19,2,6,11,2,3,4,33,1562900785026,Y,2947,1
204,2,25,target,target_10,G,/+/The skilled hunters * stopped killing wild animals * ended up * in prison./,Did somebody stop the hunters from killing?,Y,,0,31,killing,20,2,5,11,2,2,4,33,1562900785059,Y,2947,1
204,2,25,target,target_10,G,/+/The skilled hunters * stopped killing wild animals * ended up * in prison./,Did somebody stop the hunters from killing?,Y,,0,31,stopped,21,2,4,11,2,1,4,33,1562900785092,Y,2947,1
204,2,25,target,target_10,G,/+/The skilled hunters * stopped killing wild animals * ended up * in prison./,Did somebody stop the hunters from killing?,Y,,0,31,hunters,22,2,3,11,1,3,3,33,1562900785125,Y,2947,1
204,2,25,target,target_10,G,/+/The skilled hunters * stopped killing wild animals * ended up * in prison./,Did somebody stop the hunters from killing?,Y,,0,31,skilled,23,2,2,11,1,2,3,32,1562900785158,Y,2947,1
204,2,25,target,target_10,G,/+/The skilled hunters * stopped killing wild animals * ended up * in prison./,Did somebody stop the hunters from killing?,Y,,0,31,The,24,2,1,11,1,1,3,428,1562900785587,Y,2947,1
204,2,25,target,target_10,G,/+/The skilled hunters * stopped killing wild animals * ended up * in prison./,Did somebody stop the hunters from killing?,Y,,0,31,skilled,25,2,2,11,1,2,3,240,1562900785827,Y,2947,1
204,2,25,target,target_10,G,/+/The skilled hunters * stopped killing wild animals * ended up * in prison./,Did somebody stop the hunters from killing?,Y,,0,31,hunters,26,2,3,11,1,3,3,408,1562900786235,Y,2947,1
204,2,25,target,target_10,G,/+/The skilled hunters * stopped killing wild animals * ended up * in prison./,Did somebody stop the hunters from killing?,Y,,0,31,stopped,27,2,4,11,2,1,4,840,1562900787075,Y,2947,1
204,2,25,target,target_10,G,/+/The skilled hunters * stopped killing wild animals * ended up * in prison./,Did somebody stop the hunters from killing?,Y,,0,31,killing,28,2,5,11,2,2,4,391,1562900787466,Y,2947,1
204,2,25,target,target_10,G,/+/The skilled hunters * stopped killing wild animals * ended up * in prison./,Did somebody stop the hunters from killing?,Y,,0,31,wild,29,2,6,11,2,3,4,1114,1562900788580,Y,2947,1
204,2,25,target,target_10,G,/+/The skilled hunters * stopped killing wild animals * ended up * in prison./,Did somebody stop the hunters from killing?,Y,,0,31,animals,30,2,7,11,2,4,4,4631,1562900793211,Y,2947,1
204,2,25,target,target_10,G,/+/The skilled hunters * stopped killing wild animals * ended up * in prison./,Did somebody stop the hunters from killing?,Y,,0,31,ended,31,2,8,11,3,1,2,3575,1562900796787,Y,2947,1
204,2,25,target,target_10,G,/+/The skilled hunters * stopped killing wild animals * ended up * in prison./,Did somebody stop the hunters from killing?,Y,,0,31,up,32,2,9,11,3,2,2,367,1562900797155,Y,2947,1
204,2,25,target,target_10,G,/+/The skilled hunters * stopped killing wild animals * ended up * in prison./,Did somebody stop the hunters from killing?,Y,,0,31,in,33,2,10,11,4,1,2,448,1562900797603,Y,2947,1
204,2,25,target,target_10,G,/+/The skilled hunters * stopped killing wild animals * ended up * in prison./,Did somebody stop the hunters from killing?,Y,,0,31,prison.,34,2,11,11,4,2,2,480,1562900798083,Y,2947,1
204,2,25,target,target_10,G,/+/The skilled hunters * stopped killing wild animals * ended up * in prison./,Did somebody stop the hunters from killing?,Y,,0,31,in,35,2,10,11,4,1,2,499,1562900798582,Y,2947,1
204,2,25,target,target_10,G,/+/The skilled hunters * stopped killing wild animals * ended up * in prison./,Did somebody stop the hunters from killing?,Y,,0,31,up,36,2,9,11,3,2,2,33,1562900798615,Y,2947,1
