dat_Subject,list,display_order,type,id,con,fab_stimulus,fab_question,fab_key,fab_instruction,fab_feedback,dat_Trial,dat_Window,dat_WindowSequence,dat_LoopNumber,dat_LoopPosition,dat_LoopSum,dat_AreaNumber,dat_AreaPosition,dat_AreaSum,dat_ReactionTime,dat_Time,dat_Ans,dat_AnsReactionTime,dat_Accuracy
221,1,p1,practice,practice_1,,/+/The patient listened to the doctor's advice after he felt hopeless./,Did the patient follow the doctor?,Y,ins.jpg,1,1,+,1,1,1,1,1,1,1,2587,1563003660675,Y,3339,1
221,1,p1,practice,practice_1,,/+/The patient listened to the doctor's advice after he felt hopeless./,Did the patient follow the doctor?,Y,ins.jpg,1,1,The,2,2,1,11,1,1,11,1384,1563003662059,Y,3339,1
221,1,p1,practice,practice_1,,/+/The patient listened to the doctor's advice after he felt hopeless./,Did the patient follow the doctor?,Y,ins.jpg,1,1,patient,3,2,2,11,1,2,11,2336,1563003664395,Y,3339,1
221,1,p1,practice,practice_1,,/+/The patient listened to the doctor's advice after he felt hopeless./,Did the patient follow the doctor?,Y,ins.jpg,1,1,listened,4,2,3,11,1,3,11,2040,1563003666435,Y,3339,1
221,1,p1,practice,practice_1,,/+/The patient listened to the doctor's advice after he felt hopeless./,Did the patient follow the doctor?,Y,ins.jpg,1,1,to,5,2,4,11,1,4,11,1408,1563003667843,Y,3339,1
221,1,p1,practice,practice_1,,/+/The patient listened to the doctor's advice after he felt hopeless./,Did the patient follow the doctor?,Y,ins.jpg,1,1,the,6,2,5,11,1,5,11,1255,1563003669098,Y,3339,1
221,1,p1,practice,practice_1,,/+/The patient listened to the doctor's advice after he felt hopeless./,Did the patient follow the doctor?,Y,ins.jpg,1,1,doctor's,7,2,6,11,1,6,11,1592,1563003670690,Y,3339,1
221,1,p1,practice,practice_1,,/+/The patient listened to the doctor's advice after he felt hopeless./,Did the patient follow the doctor?,Y,ins.jpg,1,1,advice,8,2,7,11,1,7,11,1831,1563003672522,Y,3339,1
221,1,p1,practice,practice_1,,/+/The patient listened to the doctor's advice after he felt hopeless./,Did the patient follow the doctor?,Y,ins.jpg,1,1,after,9,2,8,11,1,8,11,1607,1563003674130,Y,3339,1
221,1,p1,practice,practice_1,,/+/The patient listened to the doctor's advice after he felt hopeless./,Did the patient follow the doctor?,Y,ins.jpg,1,1,he,10,2,9,11,1,9,11,1352,1563003675482,Y,3339,1
221,1,p1,practice,practice_1,,/+/The patient listened to the doctor's advice after he felt hopeless./,Did the patient follow the doctor?,Y,ins.jpg,1,1,felt,11,2,10,11,1,10,11,1064,1563003676546,Y,3339,1
221,1,p1,practice,practice_1,,/+/The patient listened to the doctor's advice after he felt hopeless./,Did the patient follow the doctor?,Y,ins.jpg,1,1,hopeless.,12,2,11,11,1,11,11,3647,1563003680194,Y,3339,1
221,1,p2,practice,practice_2,,/+/The visitors knew little about how the painting was created./,Did the visitors know how the painting was created?,N,,1,2,+,1,1,1,1,1,1,1,1669,1563003685706,N,2817,1
221,1,p2,practice,practice_2,,/+/The visitors knew little about how the painting was created./,Did the visitors know how the painting was created?,N,,1,2,The,2,2,1,10,1,1,10,1175,1563003686882,N,2817,1
221,1,p2,practice,practice_2,,/+/The visitors knew little about how the painting was created./,Did the visitors know how the painting was created?,N,,1,2,visitors,3,2,2,10,1,2,10,1632,1563003688514,N,2817,1
221,1,p2,practice,practice_2,,/+/The visitors knew little about how the painting was created./,Did the visitors know how the painting was created?,N,,1,2,knew,4,2,3,10,1,3,10,1040,1563003689554,N,2817,1
221,1,p2,practice,practice_2,,/+/The visitors knew little about how the painting was created./,Did the visitors know how the painting was created?,N,,1,2,little,5,2,4,10,1,4,10,1024,1563003690578,N,2817,1
221,1,p2,practice,practice_2,,/+/The visitors knew little about how the painting was created./,Did the visitors know how the painting was created?,N,,1,2,about,6,2,5,10,1,5,10,751,1563003691329,N,2817,1
221,1,p2,practice,practice_2,,/+/The visitors knew little about how the painting was created./,Did the visitors know how the painting was created?,N,,1,2,how,7,2,6,10,1,6,10,1209,1563003692538,N,2817,1
221,1,p2,practice,practice_2,,/+/The visitors knew little about how the painting was created./,Did the visitors know how the painting was created?,N,,1,2,the,8,2,7,10,1,7,10,1280,1563003693818,N,2817,1
221,1,p2,practice,practice_2,,/+/The visitors knew little about how the painting was created./,Did the visitors know how the painting was created?,N,,1,2,painting,9,2,8,10,1,8,10,1607,1563003695425,N,2817,1
221,1,p2,practice,practice_2,,/+/The visitors knew little about how the painting was created./,Did the visitors know how the painting was created?,N,,1,2,was,10,2,9,10,1,9,10,705,1563003696130,N,2817,1
221,1,p2,practice,practice_2,,/+/The visitors knew little about how the painting was created./,Did the visitors know how the painting was created?,N,,1,2,created.,11,2,10,10,1,10,10,2144,1563003698274,N,2817,1
221,1,p3,practice,practice_3,,/+/The old lady lived further away from the city center./,Did the old lady live in the city center?,N,,1,3,+,1,1,1,1,1,1,1,2352,1563003703946,N,3723,1
221,1,p3,practice,practice_3,,/+/The old lady lived further away from the city center./,Did the old lady live in the city center?,N,,1,3,The,2,2,1,10,1,1,10,1615,1563003705561,N,3723,1
221,1,p3,practice,practice_3,,/+/The old lady lived further away from the city center./,Did the old lady live in the city center?,N,,1,3,old,3,2,2,10,1,2,10,2633,1563003708194,N,3723,1
221,1,p3,practice,practice_3,,/+/The old lady lived further away from the city center./,Did the old lady live in the city center?,N,,1,3,lady,4,2,3,10,1,3,10,1240,1563003709434,N,3723,1
221,1,p3,practice,practice_3,,/+/The old lady lived further away from the city center./,Did the old lady live in the city center?,N,,1,3,lived,5,2,4,10,1,4,10,1327,1563003710761,N,3723,1
221,1,p3,practice,practice_3,,/+/The old lady lived further away from the city center./,Did the old lady live in the city center?,N,,1,3,further,6,2,5,10,1,5,10,1161,1563003711922,N,3723,1
221,1,p3,practice,practice_3,,/+/The old lady lived further away from the city center./,Did the old lady live in the city center?,N,,1,3,away,7,2,6,10,1,6,10,1209,1563003713131,N,3723,1
221,1,p3,practice,practice_3,,/+/The old lady lived further away from the city center./,Did the old lady live in the city center?,N,,1,3,from,8,2,7,10,1,7,10,1175,1563003714307,N,3723,1
221,1,p3,practice,practice_3,,/+/The old lady lived further away from the city center./,Did the old lady live in the city center?,N,,1,3,the,9,2,8,10,1,8,10,1439,1563003715747,N,3723,1
221,1,p3,practice,practice_3,,/+/The old lady lived further away from the city center./,Did the old lady live in the city center?,N,,1,3,city,10,2,9,10,1,9,10,3656,1563003719403,N,3723,1
221,1,p3,practice,practice_3,,/+/The old lady lived further away from the city center./,Did the old lady live in the city center?,N,,1,3,center.,11,2,10,10,1,10,10,1719,1563003721123,N,3723,1
221,1,p4,practice,practice_4,,/+/The maid looked at the hostess with a nervous smile./,Did the maid feel nervous? ,Y,,1,4,+,1,1,1,1,1,1,1,1887,1563003727235,Y,2523,1
221,1,p4,practice,practice_4,,/+/The maid looked at the hostess with a nervous smile./,Did the maid feel nervous? ,Y,,1,4,The,2,2,1,10,1,1,10,856,1563003728091,Y,2523,1
221,1,p4,practice,practice_4,,/+/The maid looked at the hostess with a nervous smile./,Did the maid feel nervous? ,Y,,1,4,maid,3,2,2,10,1,2,10,1320,1563003729411,Y,2523,1
221,1,p4,practice,practice_4,,/+/The maid looked at the hostess with a nervous smile./,Did the maid feel nervous? ,Y,,1,4,looked,4,2,3,10,1,3,10,672,1563003730083,Y,2523,1
221,1,p4,practice,practice_4,,/+/The maid looked at the hostess with a nervous smile./,Did the maid feel nervous? ,Y,,1,4,at,5,2,4,10,1,4,10,600,1563003730683,Y,2523,1
221,1,p4,practice,practice_4,,/+/The maid looked at the hostess with a nervous smile./,Did the maid feel nervous? ,Y,,1,4,the,6,2,5,10,1,5,10,1311,1563003731994,Y,2523,1
221,1,p4,practice,practice_4,,/+/The maid looked at the hostess with a nervous smile./,Did the maid feel nervous? ,Y,,1,4,hostess,7,2,6,10,1,6,10,2665,1563003734659,Y,2523,1
221,1,p4,practice,practice_4,,/+/The maid looked at the hostess with a nervous smile./,Did the maid feel nervous? ,Y,,1,4,with,8,2,7,10,1,7,10,824,1563003735483,Y,2523,1
221,1,p4,practice,practice_4,,/+/The maid looked at the hostess with a nervous smile./,Did the maid feel nervous? ,Y,,1,4,a,9,2,8,10,1,8,10,1008,1563003736491,Y,2523,1
221,1,p4,practice,practice_4,,/+/The maid looked at the hostess with a nervous smile./,Did the maid feel nervous? ,Y,,1,4,nervous,10,2,9,10,1,9,10,1272,1563003737763,Y,2523,1
221,1,p4,practice,practice_4,,/+/The maid looked at the hostess with a nervous smile./,Did the maid feel nervous? ,Y,,1,4,smile.,11,2,10,10,1,10,10,4968,1563003742731,Y,2523,1
221,1,p5,practice,practice_5,,/+/The young lady * sent a red rose * became * really embarrassed./,Did the lady send a red rose?,N,,1,5,+,1,1,1,1,1,1,1,2543,1563003748299,Y,3035,0
221,1,p5,practice,practice_5,,/+/The young lady * sent a red rose * became * really embarrassed./,Did the lady send a red rose?,N,,1,5,The,2,2,1,10,1,1,3,696,1563003748995,Y,3035,0
221,1,p5,practice,practice_5,,/+/The young lady * sent a red rose * became * really embarrassed./,Did the lady send a red rose?,N,,1,5,young,3,2,2,10,1,2,3,840,1563003749835,Y,3035,0
221,1,p5,practice,practice_5,,/+/The young lady * sent a red rose * became * really embarrassed./,Did the lady send a red rose?,N,,1,5,lady,4,2,3,10,1,3,3,672,1563003750507,Y,3035,0
221,1,p5,practice,practice_5,,/+/The young lady * sent a red rose * became * really embarrassed./,Did the lady send a red rose?,N,,1,5,sent,5,2,4,10,2,1,4,984,1563003751491,Y,3035,0
221,1,p5,practice,practice_5,,/+/The young lady * sent a red rose * became * really embarrassed./,Did the lady send a red rose?,N,,1,5,a,6,2,5,10,2,2,4,440,1563003751931,Y,3035,0
221,1,p5,practice,practice_5,,/+/The young lady * sent a red rose * became * really embarrassed./,Did the lady send a red rose?,N,,1,5,red,7,2,6,10,2,3,4,680,1563003752611,Y,3035,0
221,1,p5,practice,practice_5,,/+/The young lady * sent a red rose * became * really embarrassed./,Did the lady send a red rose?,N,,1,5,rose,8,2,7,10,2,4,4,904,1563003753515,Y,3035,0
221,1,p5,practice,practice_5,,/+/The young lady * sent a red rose * became * really embarrassed./,Did the lady send a red rose?,N,,1,5,became,9,2,8,10,3,1,1,1376,1563003754891,Y,3035,0
221,1,p5,practice,practice_5,,/+/The young lady * sent a red rose * became * really embarrassed./,Did the lady send a red rose?,N,,1,5,really,10,2,9,10,4,1,2,560,1563003755451,Y,3035,0
221,1,p5,practice,practice_5,,/+/The young lady * sent a red rose * became * really embarrassed./,Did the lady send a red rose?,N,,1,5,embarrassed.,11,2,10,10,4,2,2,1336,1563003756787,Y,3035,0
221,1,p5,practice,practice_5,,/+/The young lady * sent a red rose * became * really embarrassed./,Did the lady send a red rose?,N,,1,5,really,12,2,9,10,4,1,2,288,1563003757075,Y,3035,0
221,1,p5,practice,practice_5,,/+/The young lady * sent a red rose * became * really embarrassed./,Did the lady send a red rose?,N,,1,5,became,13,2,8,10,3,1,1,352,1563003757427,Y,3035,0
221,1,p5,practice,practice_5,,/+/The young lady * sent a red rose * became * really embarrassed./,Did the lady send a red rose?,N,,1,5,rose,14,2,7,10,2,4,4,456,1563003757883,Y,3035,0
221,1,p5,practice,practice_5,,/+/The young lady * sent a red rose * became * really embarrassed./,Did the lady send a red rose?,N,,1,5,red,15,2,6,10,2,3,4,367,1563003758250,Y,3035,0
221,1,p5,practice,practice_5,,/+/The young lady * sent a red rose * became * really embarrassed./,Did the lady send a red rose?,N,,1,5,a,16,2,5,10,2,2,4,501,1563003758751,Y,3035,0
221,1,p5,practice,practice_5,,/+/The young lady * sent a red rose * became * really embarrassed./,Did the lady send a red rose?,N,,1,5,sent,17,2,4,10,2,1,4,33,1563003758784,Y,3035,0
221,1,p5,practice,practice_5,,/+/The young lady * sent a red rose * became * really embarrassed./,Did the lady send a red rose?,N,,1,5,lady,18,2,3,10,1,3,3,33,1563003758817,Y,3035,0
221,1,p5,practice,practice_5,,/+/The young lady * sent a red rose * became * really embarrassed./,Did the lady send a red rose?,N,,1,5,young,19,2,2,10,1,2,3,218,1563003759035,Y,3035,0
221,1,p5,practice,practice_5,,/+/The young lady * sent a red rose * became * really embarrassed./,Did the lady send a red rose?,N,,1,5,The,20,2,1,10,1,1,3,824,1563003759859,Y,3035,0
221,1,p5,practice,practice_5,,/+/The young lady * sent a red rose * became * really embarrassed./,Did the lady send a red rose?,N,,1,5,young,21,2,2,10,1,2,3,368,1563003760227,Y,3035,0
221,1,p5,practice,practice_5,,/+/The young lady * sent a red rose * became * really embarrassed./,Did the lady send a red rose?,N,,1,5,lady,22,2,3,10,1,3,3,520,1563003760747,Y,3035,0
221,1,p5,practice,practice_5,,/+/The young lady * sent a red rose * became * really embarrassed./,Did the lady send a red rose?,N,,1,5,sent,23,2,4,10,2,1,4,1168,1563003761915,Y,3035,0
221,1,p5,practice,practice_5,,/+/The young lady * sent a red rose * became * really embarrassed./,Did the lady send a red rose?,N,,1,5,a,24,2,5,10,2,2,4,1080,1563003762995,Y,3035,0
221,1,p5,practice,practice_5,,/+/The young lady * sent a red rose * became * really embarrassed./,Did the lady send a red rose?,N,,1,5,red,25,2,6,10,2,3,4,904,1563003763899,Y,3035,0
221,1,p5,practice,practice_5,,/+/The young lady * sent a red rose * became * really embarrassed./,Did the lady send a red rose?,N,,1,5,rose,26,2,7,10,2,4,4,3040,1563003766939,Y,3035,0
221,1,p5,practice,practice_5,,/+/The young lady * sent a red rose * became * really embarrassed./,Did the lady send a red rose?,N,,1,5,became,27,2,8,10,3,1,1,4984,1563003771923,Y,3035,0
221,1,p5,practice,practice_5,,/+/The young lady * sent a red rose * became * really embarrassed./,Did the lady send a red rose?,N,,1,5,really,28,2,9,10,4,1,2,1464,1563003773387,Y,3035,0
221,1,p5,practice,practice_5,,/+/The young lady * sent a red rose * became * really embarrassed./,Did the lady send a red rose?,N,,1,5,embarrassed.,29,2,10,10,4,2,2,1272,1563003774659,Y,3035,0
221,1,p5,practice,practice_5,,/+/The young lady * sent a red rose * became * really embarrassed./,Did the lady send a red rose?,N,,1,5,really,30,2,9,10,4,1,2,720,1563003775379,Y,3035,0
221,1,p5,practice,practice_5,,/+/The young lady * sent a red rose * became * really embarrassed./,Did the lady send a red rose?,N,,1,5,became,31,2,8,10,3,1,1,1159,1563003776538,Y,3035,0
221,1,p5,practice,practice_5,,/+/The young lady * sent a red rose * became * really embarrassed./,Did the lady send a red rose?,N,,1,5,rose,32,2,7,10,2,4,4,501,1563003777039,Y,3035,0
221,1,p5,practice,practice_5,,/+/The young lady * sent a red rose * became * really embarrassed./,Did the lady send a red rose?,N,,1,5,red,33,2,6,10,2,3,4,32,1563003777071,Y,3035,0
221,1,p5,practice,practice_5,,/+/The young lady * sent a red rose * became * really embarrassed./,Did the lady send a red rose?,N,,1,5,a,34,2,5,10,2,2,4,32,1563003777104,Y,3035,0
221,1,p5,practice,practice_5,,/+/The young lady * sent a red rose * became * really embarrassed./,Did the lady send a red rose?,N,,1,5,sent,35,2,4,10,2,1,4,32,1563003777137,Y,3035,0
221,1,p5,practice,practice_5,,/+/The young lady * sent a red rose * became * really embarrassed./,Did the lady send a red rose?,N,,1,5,lady,36,2,3,10,1,3,3,32,1563003777170,Y,3035,0
221,1,p5,practice,practice_5,,/+/The young lady * sent a red rose * became * really embarrassed./,Did the lady send a red rose?,N,,1,5,young,37,2,2,10,1,2,3,32,1563003777203,Y,3035,0
221,1,p5,practice,practice_5,,/+/The young lady * sent a red rose * became * really embarrassed./,Did the lady send a red rose?,N,,1,5,The,38,2,1,10,1,1,3,431,1563003777634,Y,3035,0
221,1,p5,practice,practice_5,,/+/The young lady * sent a red rose * became * really embarrassed./,Did the lady send a red rose?,N,,1,5,young,39,2,2,10,1,2,3,337,1563003777971,Y,3035,0
221,1,p5,practice,practice_5,,/+/The young lady * sent a red rose * became * really embarrassed./,Did the lady send a red rose?,N,,1,5,lady,40,2,3,10,1,3,3,328,1563003778299,Y,3035,0
221,1,p5,practice,practice_5,,/+/The young lady * sent a red rose * became * really embarrassed./,Did the lady send a red rose?,N,,1,5,sent,41,2,4,10,2,1,4,536,1563003778835,Y,3035,0
221,1,p5,practice,practice_5,,/+/The young lady * sent a red rose * became * really embarrassed./,Did the lady send a red rose?,N,,1,5,a,42,2,5,10,2,2,4,1400,1563003780235,Y,3035,0
221,1,p5,practice,practice_5,,/+/The young lady * sent a red rose * became * really embarrassed./,Did the lady send a red rose?,N,,1,5,red,43,2,6,10,2,3,4,2296,1563003782531,Y,3035,0
221,1,p5,practice,practice_5,,/+/The young lady * sent a red rose * became * really embarrassed./,Did the lady send a red rose?,N,,1,5,rose,44,2,7,10,2,4,4,488,1563003783019,Y,3035,0
221,1,p5,practice,practice_5,,/+/The young lady * sent a red rose * became * really embarrassed./,Did the lady send a red rose?,N,,1,5,became,45,2,8,10,3,1,1,2440,1563003785459,Y,3035,0
221,1,p5,practice,practice_5,,/+/The young lady * sent a red rose * became * really embarrassed./,Did the lady send a red rose?,N,,1,5,really,46,2,9,10,4,1,2,1848,1563003787307,Y,3035,0
221,1,p5,practice,practice_5,,/+/The young lady * sent a red rose * became * really embarrassed./,Did the lady send a red rose?,N,,1,5,embarrassed.,47,2,10,10,4,2,2,720,1563003788027,Y,3035,0
221,1,p6,practice,practice_6,,/+/The busy workers * who were * offered a delicious pizza * felt * not so hungry./,Did someone offer the workers a pizza?,Y,,1,6,+,1,1,1,1,1,1,1,6934,1563003826363,Y,2972,1
221,1,p6,practice,practice_6,,/+/The busy workers * who were * offered a delicious pizza * felt * not so hungry./,Did someone offer the workers a pizza?,Y,,1,6,The,2,2,1,13,1,1,3,975,1563003827338,Y,2972,1
221,1,p6,practice,practice_6,,/+/The busy workers * who were * offered a delicious pizza * felt * not so hungry./,Did someone offer the workers a pizza?,Y,,1,6,busy,3,2,2,13,1,2,3,1248,1563003828586,Y,2972,1
221,1,p6,practice,practice_6,,/+/The busy workers * who were * offered a delicious pizza * felt * not so hungry./,Did someone offer the workers a pizza?,Y,,1,6,workers,4,2,3,13,1,3,3,1231,1563003829818,Y,2972,1
221,1,p6,practice,practice_6,,/+/The busy workers * who were * offered a delicious pizza * felt * not so hungry./,Did someone offer the workers a pizza?,Y,,1,6,who,5,2,4,13,2,1,2,871,1563003830690,Y,2972,1
221,1,p6,practice,practice_6,,/+/The busy workers * who were * offered a delicious pizza * felt * not so hungry./,Did someone offer the workers a pizza?,Y,,1,6,were,6,2,5,13,2,2,2,1120,1563003831810,Y,2972,1
221,1,p6,practice,practice_6,,/+/The busy workers * who were * offered a delicious pizza * felt * not so hungry./,Did someone offer the workers a pizza?,Y,,1,6,offered,7,2,6,13,3,1,4,1558,1563003833369,Y,2972,1
221,1,p6,practice,practice_6,,/+/The busy workers * who were * offered a delicious pizza * felt * not so hungry./,Did someone offer the workers a pizza?,Y,,1,6,a,8,2,7,13,3,2,4,417,1563003833787,Y,2972,1
221,1,p6,practice,practice_6,,/+/The busy workers * who were * offered a delicious pizza * felt * not so hungry./,Did someone offer the workers a pizza?,Y,,1,6,delicious,9,2,8,13,3,3,4,911,1563003834699,Y,2972,1
221,1,p6,practice,practice_6,,/+/The busy workers * who were * offered a delicious pizza * felt * not so hungry./,Did someone offer the workers a pizza?,Y,,1,6,pizza,10,2,9,13,3,4,4,704,1563003835403,Y,2972,1
221,1,p6,practice,practice_6,,/+/The busy workers * who were * offered a delicious pizza * felt * not so hungry./,Did someone offer the workers a pizza?,Y,,1,6,felt,11,2,10,13,4,1,1,616,1563003836019,Y,2972,1
221,1,p6,practice,practice_6,,/+/The busy workers * who were * offered a delicious pizza * felt * not so hungry./,Did someone offer the workers a pizza?,Y,,1,6,not,12,2,11,13,5,1,3,687,1563003836707,Y,2972,1
221,1,p6,practice,practice_6,,/+/The busy workers * who were * offered a delicious pizza * felt * not so hungry./,Did someone offer the workers a pizza?,Y,,1,6,so,13,2,12,13,5,2,3,703,1563003837411,Y,2972,1
221,1,p6,practice,practice_6,,/+/The busy workers * who were * offered a delicious pizza * felt * not so hungry./,Did someone offer the workers a pizza?,Y,,1,6,hungry.,14,2,13,13,5,3,3,2624,1563003840035,Y,2972,1
221,1,p6,practice,practice_6,,/+/The busy workers * who were * offered a delicious pizza * felt * not so hungry./,Did someone offer the workers a pizza?,Y,,1,6,so,15,2,12,13,5,2,3,498,1563003840534,Y,2972,1
221,1,p6,practice,practice_6,,/+/The busy workers * who were * offered a delicious pizza * felt * not so hungry./,Did someone offer the workers a pizza?,Y,,1,6,not,16,2,11,13,5,1,3,33,1563003840567,Y,2972,1
221,1,p6,practice,practice_6,,/+/The busy workers * who were * offered a delicious pizza * felt * not so hungry./,Did someone offer the workers a pizza?,Y,,1,6,felt,17,2,10,13,4,1,1,33,1563003840601,Y,2972,1
221,1,p6,practice,practice_6,,/+/The busy workers * who were * offered a delicious pizza * felt * not so hungry./,Did someone offer the workers a pizza?,Y,,1,6,pizza,18,2,9,13,3,4,4,33,1563003840634,Y,2972,1
221,1,p6,practice,practice_6,,/+/The busy workers * who were * offered a delicious pizza * felt * not so hungry./,Did someone offer the workers a pizza?,Y,,1,6,delicious,19,2,8,13,3,3,4,33,1563003840667,Y,2972,1
221,1,p6,practice,practice_6,,/+/The busy workers * who were * offered a delicious pizza * felt * not so hungry./,Did someone offer the workers a pizza?,Y,,1,6,a,20,2,7,13,3,2,4,33,1563003840700,Y,2972,1
221,1,p6,practice,practice_6,,/+/The busy workers * who were * offered a delicious pizza * felt * not so hungry./,Did someone offer the workers a pizza?,Y,,1,6,offered,21,2,6,13,3,1,4,33,1563003840733,Y,2972,1
221,1,p6,practice,practice_6,,/+/The busy workers * who were * offered a delicious pizza * felt * not so hungry./,Did someone offer the workers a pizza?,Y,,1,6,were,22,2,5,13,2,2,2,33,1563003840766,Y,2972,1
221,1,p6,practice,practice_6,,/+/The busy workers * who were * offered a delicious pizza * felt * not so hungry./,Did someone offer the workers a pizza?,Y,,1,6,who,23,2,4,13,2,1,2,33,1563003840799,Y,2972,1
221,1,p6,practice,practice_6,,/+/The busy workers * who were * offered a delicious pizza * felt * not so hungry./,Did someone offer the workers a pizza?,Y,,1,6,workers,24,2,3,13,1,3,3,628,1563003841427,Y,2972,1
221,1,p6,practice,practice_6,,/+/The busy workers * who were * offered a delicious pizza * felt * not so hungry./,Did someone offer the workers a pizza?,Y,,1,6,who,25,2,4,13,2,1,2,328,1563003841755,Y,2972,1
221,1,p6,practice,practice_6,,/+/The busy workers * who were * offered a delicious pizza * felt * not so hungry./,Did someone offer the workers a pizza?,Y,,1,6,were,26,2,5,13,2,2,2,447,1563003842203,Y,2972,1
221,1,p6,practice,practice_6,,/+/The busy workers * who were * offered a delicious pizza * felt * not so hungry./,Did someone offer the workers a pizza?,Y,,1,6,offered,27,2,6,13,3,1,4,497,1563003842700,Y,2972,1
221,1,p6,practice,practice_6,,/+/The busy workers * who were * offered a delicious pizza * felt * not so hungry./,Did someone offer the workers a pizza?,Y,,1,6,a,28,2,7,13,3,2,4,407,1563003843107,Y,2972,1
221,1,p6,practice,practice_6,,/+/The busy workers * who were * offered a delicious pizza * felt * not so hungry./,Did someone offer the workers a pizza?,Y,,1,6,delicious,29,2,8,13,3,3,4,664,1563003843771,Y,2972,1
221,1,p6,practice,practice_6,,/+/The busy workers * who were * offered a delicious pizza * felt * not so hungry./,Did someone offer the workers a pizza?,Y,,1,6,pizza,30,2,9,13,3,4,4,488,1563003844259,Y,2972,1
221,1,p6,practice,practice_6,,/+/The busy workers * who were * offered a delicious pizza * felt * not so hungry./,Did someone offer the workers a pizza?,Y,,1,6,felt,31,2,10,13,4,1,1,504,1563003844763,Y,2972,1
221,1,p6,practice,practice_6,,/+/The busy workers * who were * offered a delicious pizza * felt * not so hungry./,Did someone offer the workers a pizza?,Y,,1,6,not,32,2,11,13,5,1,3,383,1563003845146,Y,2972,1
221,1,p6,practice,practice_6,,/+/The busy workers * who were * offered a delicious pizza * felt * not so hungry./,Did someone offer the workers a pizza?,Y,,1,6,so,33,2,12,13,5,2,3,392,1563003845538,Y,2972,1
221,1,p6,practice,practice_6,,/+/The busy workers * who were * offered a delicious pizza * felt * not so hungry./,Did someone offer the workers a pizza?,Y,,1,6,hungry.,34,2,13,13,5,3,3,535,1563003846074,Y,2972,1
221,1,1,filler,filler_6,,/+/The girl sang very well through learning experiences from her tutor./,Did the girl's tutor do a lot of help? ,Y,练习结束，现在开始正式实验。,0,7,+,1,1,1,1,1,1,1,4366,1563003864770,Y,3475,1
221,1,1,filler,filler_6,,/+/The girl sang very well through learning experiences from her tutor./,Did the girl's tutor do a lot of help? ,Y,练习结束，现在开始正式实验。,0,7,The,2,2,1,11,1,1,11,537,1563003865307,Y,3475,1
221,1,1,filler,filler_6,,/+/The girl sang very well through learning experiences from her tutor./,Did the girl's tutor do a lot of help? ,Y,练习结束，现在开始正式实验。,0,7,girl,3,2,2,11,1,2,11,511,1563003865818,Y,3475,1
221,1,1,filler,filler_6,,/+/The girl sang very well through learning experiences from her tutor./,Did the girl's tutor do a lot of help? ,Y,练习结束，现在开始正式实验。,0,7,sang,4,2,3,11,1,3,11,681,1563003866499,Y,3475,1
221,1,1,filler,filler_6,,/+/The girl sang very well through learning experiences from her tutor./,Did the girl's tutor do a lot of help? ,Y,练习结束，现在开始正式实验。,0,7,very,5,2,4,11,1,4,11,568,1563003867067,Y,3475,1
221,1,1,filler,filler_6,,/+/The girl sang very well through learning experiences from her tutor./,Did the girl's tutor do a lot of help? ,Y,练习结束，现在开始正式实验。,0,7,well,6,2,5,11,1,5,11,504,1563003867571,Y,3475,1
221,1,1,filler,filler_6,,/+/The girl sang very well through learning experiences from her tutor./,Did the girl's tutor do a lot of help? ,Y,练习结束，现在开始正式实验。,0,7,through,7,2,6,11,1,6,11,1072,1563003868643,Y,3475,1
221,1,1,filler,filler_6,,/+/The girl sang very well through learning experiences from her tutor./,Did the girl's tutor do a lot of help? ,Y,练习结束，现在开始正式实验。,0,7,learning,8,2,7,11,1,7,11,904,1563003869547,Y,3475,1
221,1,1,filler,filler_6,,/+/The girl sang very well through learning experiences from her tutor./,Did the girl's tutor do a lot of help? ,Y,练习结束，现在开始正式实验。,0,7,experiences,9,2,8,11,1,8,11,1367,1563003870914,Y,3475,1
221,1,1,filler,filler_6,,/+/The girl sang very well through learning experiences from her tutor./,Did the girl's tutor do a lot of help? ,Y,练习结束，现在开始正式实验。,0,7,from,10,2,9,11,1,9,11,505,1563003871419,Y,3475,1
221,1,1,filler,filler_6,,/+/The girl sang very well through learning experiences from her tutor./,Did the girl's tutor do a lot of help? ,Y,练习结束，现在开始正式实验。,0,7,her,11,2,10,11,1,10,11,600,1563003872019,Y,3475,1
221,1,1,filler,filler_6,,/+/The girl sang very well through learning experiences from her tutor./,Did the girl's tutor do a lot of help? ,Y,练习结束，现在开始正式实验。,0,7,tutor.,12,2,11,11,1,11,11,1088,1563003873107,Y,3475,1
221,1,1,filler,filler_6,,/+/The girl sang very well through learning experiences from her tutor./,Did the girl's tutor do a lot of help? ,Y,练习结束，现在开始正式实验。,0,7,her,13,2,10,11,1,10,11,500,1563003873607,Y,3475,1
221,1,1,filler,filler_6,,/+/The girl sang very well through learning experiences from her tutor./,Did the girl's tutor do a lot of help? ,Y,练习结束，现在开始正式实验。,0,7,from,14,2,9,11,1,9,11,33,1563003873640,Y,3475,1
221,1,1,filler,filler_6,,/+/The girl sang very well through learning experiences from her tutor./,Did the girl's tutor do a lot of help? ,Y,练习结束，现在开始正式实验。,0,7,experiences,15,2,8,11,1,8,11,33,1563003873673,Y,3475,1
221,1,1,filler,filler_6,,/+/The girl sang very well through learning experiences from her tutor./,Did the girl's tutor do a lot of help? ,Y,练习结束，现在开始正式实验。,0,7,learning,16,2,7,11,1,7,11,33,1563003873706,Y,3475,1
221,1,1,filler,filler_6,,/+/The girl sang very well through learning experiences from her tutor./,Did the girl's tutor do a lot of help? ,Y,练习结束，现在开始正式实验。,0,7,through,17,2,6,11,1,6,11,33,1563003873739,Y,3475,1
221,1,1,filler,filler_6,,/+/The girl sang very well through learning experiences from her tutor./,Did the girl's tutor do a lot of help? ,Y,练习结束，现在开始正式实验。,0,7,well,18,2,5,11,1,5,11,376,1563003874115,Y,3475,1
221,1,1,filler,filler_6,,/+/The girl sang very well through learning experiences from her tutor./,Did the girl's tutor do a lot of help? ,Y,练习结束，现在开始正式实验。,0,7,very,19,2,4,11,1,4,11,280,1563003874395,Y,3475,1
221,1,1,filler,filler_6,,/+/The girl sang very well through learning experiences from her tutor./,Did the girl's tutor do a lot of help? ,Y,练习结束，现在开始正式实验。,0,7,sang,20,2,3,11,1,3,11,200,1563003874595,Y,3475,1
221,1,1,filler,filler_6,,/+/The girl sang very well through learning experiences from her tutor./,Did the girl's tutor do a lot of help? ,Y,练习结束，现在开始正式实验。,0,7,girl,21,2,2,11,1,2,11,240,1563003874835,Y,3475,1
221,1,1,filler,filler_6,,/+/The girl sang very well through learning experiences from her tutor./,Did the girl's tutor do a lot of help? ,Y,练习结束，现在开始正式实验。,0,7,The,22,2,1,11,1,1,11,415,1563003875251,Y,3475,1
221,1,1,filler,filler_6,,/+/The girl sang very well through learning experiences from her tutor./,Did the girl's tutor do a lot of help? ,Y,练习结束，现在开始正式实验。,0,7,girl,23,2,2,11,1,2,11,216,1563003875467,Y,3475,1
221,1,1,filler,filler_6,,/+/The girl sang very well through learning experiences from her tutor./,Did the girl's tutor do a lot of help? ,Y,练习结束，现在开始正式实验。,0,7,sang,24,2,3,11,1,3,11,463,1563003875930,Y,3475,1
221,1,1,filler,filler_6,,/+/The girl sang very well through learning experiences from her tutor./,Did the girl's tutor do a lot of help? ,Y,练习结束，现在开始正式实验。,0,7,very,25,2,4,11,1,4,11,288,1563003876218,Y,3475,1
221,1,1,filler,filler_6,,/+/The girl sang very well through learning experiences from her tutor./,Did the girl's tutor do a lot of help? ,Y,练习结束，现在开始正式实验。,0,7,well,26,2,5,11,1,5,11,417,1563003876635,Y,3475,1
221,1,1,filler,filler_6,,/+/The girl sang very well through learning experiences from her tutor./,Did the girl's tutor do a lot of help? ,Y,练习结束，现在开始正式实验。,0,7,through,27,2,6,11,1,6,11,712,1563003877347,Y,3475,1
221,1,1,filler,filler_6,,/+/The girl sang very well through learning experiences from her tutor./,Did the girl's tutor do a lot of help? ,Y,练习结束，现在开始正式实验。,0,7,learning,28,2,7,11,1,7,11,615,1563003877962,Y,3475,1
221,1,1,filler,filler_6,,/+/The girl sang very well through learning experiences from her tutor./,Did the girl's tutor do a lot of help? ,Y,练习结束，现在开始正式实验。,0,7,experiences,29,2,8,11,1,8,11,713,1563003878675,Y,3475,1
221,1,1,filler,filler_6,,/+/The girl sang very well through learning experiences from her tutor./,Did the girl's tutor do a lot of help? ,Y,练习结束，现在开始正式实验。,0,7,from,30,2,9,11,1,9,11,944,1563003879619,Y,3475,1
221,1,1,filler,filler_6,,/+/The girl sang very well through learning experiences from her tutor./,Did the girl's tutor do a lot of help? ,Y,练习结束，现在开始正式实验。,0,7,her,31,2,10,11,1,10,11,351,1563003879970,Y,3475,1
221,1,1,filler,filler_6,,/+/The girl sang very well through learning experiences from her tutor./,Did the girl's tutor do a lot of help? ,Y,练习结束，现在开始正式实验。,0,7,tutor.,32,2,11,11,1,11,11,673,1563003880643,Y,3475,1
221,1,2,filler,filler_7,,/+/Some important papers which lay in the office were stolen last night./,Were the papers still safe?,N,,0,8,+,1,1,1,1,1,1,1,1711,1563003886331,N,2803,1
221,1,2,filler,filler_7,,/+/Some important papers which lay in the office were stolen last night./,Were the papers still safe?,N,,0,8,Some,2,2,1,12,1,1,12,648,1563003886979,N,2803,1
221,1,2,filler,filler_7,,/+/Some important papers which lay in the office were stolen last night./,Were the papers still safe?,N,,0,8,important,3,2,2,12,1,2,12,1728,1563003888707,N,2803,1
221,1,2,filler,filler_7,,/+/Some important papers which lay in the office were stolen last night./,Were the papers still safe?,N,,0,8,papers,4,2,3,12,1,3,12,856,1563003889563,N,2803,1
221,1,2,filler,filler_7,,/+/Some important papers which lay in the office were stolen last night./,Were the papers still safe?,N,,0,8,which,5,2,4,12,1,4,12,623,1563003890186,N,2803,1
221,1,2,filler,filler_7,,/+/Some important papers which lay in the office were stolen last night./,Were the papers still safe?,N,,0,8,lay,6,2,5,12,1,5,12,609,1563003890795,N,2803,1
221,1,2,filler,filler_7,,/+/Some important papers which lay in the office were stolen last night./,Were the papers still safe?,N,,0,8,in,7,2,6,12,1,6,12,407,1563003891202,N,2803,1
221,1,2,filler,filler_7,,/+/Some important papers which lay in the office were stolen last night./,Were the papers still safe?,N,,0,8,the,8,2,7,12,1,7,12,393,1563003891595,N,2803,1
221,1,2,filler,filler_7,,/+/Some important papers which lay in the office were stolen last night./,Were the papers still safe?,N,,0,8,office,9,2,8,12,1,8,12,696,1563003892291,N,2803,1
221,1,2,filler,filler_7,,/+/Some important papers which lay in the office were stolen last night./,Were the papers still safe?,N,,0,8,were,10,2,9,12,1,9,12,887,1563003893178,N,2803,1
221,1,2,filler,filler_7,,/+/Some important papers which lay in the office were stolen last night./,Were the papers still safe?,N,,0,8,stolen,11,2,10,12,1,10,12,729,1563003893907,N,2803,1
221,1,2,filler,filler_7,,/+/Some important papers which lay in the office were stolen last night./,Were the papers still safe?,N,,0,8,last,12,2,11,12,1,11,12,640,1563003894547,N,2803,1
221,1,2,filler,filler_7,,/+/Some important papers which lay in the office were stolen last night./,Were the papers still safe?,N,,0,8,night.,13,2,12,12,1,12,12,872,1563003895419,N,2803,1
221,1,2,filler,filler_7,,/+/Some important papers which lay in the office were stolen last night./,Were the papers still safe?,N,,0,8,last,14,2,11,12,1,11,12,499,1563003895918,N,2803,1
221,1,2,filler,filler_7,,/+/Some important papers which lay in the office were stolen last night./,Were the papers still safe?,N,,0,8,stolen,15,2,10,12,1,10,12,33,1563003895951,N,2803,1
221,1,2,filler,filler_7,,/+/Some important papers which lay in the office were stolen last night./,Were the papers still safe?,N,,0,8,were,16,2,9,12,1,9,12,33,1563003895984,N,2803,1
221,1,2,filler,filler_7,,/+/Some important papers which lay in the office were stolen last night./,Were the papers still safe?,N,,0,8,office,17,2,8,12,1,8,12,33,1563003896017,N,2803,1
221,1,2,filler,filler_7,,/+/Some important papers which lay in the office were stolen last night./,Were the papers still safe?,N,,0,8,the,18,2,7,12,1,7,12,33,1563003896050,N,2803,1
221,1,2,filler,filler_7,,/+/Some important papers which lay in the office were stolen last night./,Were the papers still safe?,N,,0,8,in,19,2,6,12,1,6,12,33,1563003896083,N,2803,1
221,1,2,filler,filler_7,,/+/Some important papers which lay in the office were stolen last night./,Were the papers still safe?,N,,0,8,lay,20,2,5,12,1,5,12,33,1563003896116,N,2803,1
221,1,2,filler,filler_7,,/+/Some important papers which lay in the office were stolen last night./,Were the papers still safe?,N,,0,8,which,21,2,4,12,1,4,12,32,1563003896148,N,2803,1
221,1,2,filler,filler_7,,/+/Some important papers which lay in the office were stolen last night./,Were the papers still safe?,N,,0,8,papers,22,2,3,12,1,3,12,33,1563003896181,N,2803,1
221,1,2,filler,filler_7,,/+/Some important papers which lay in the office were stolen last night./,Were the papers still safe?,N,,0,8,important,23,2,2,12,1,2,12,33,1563003896214,N,2803,1
221,1,2,filler,filler_7,,/+/Some important papers which lay in the office were stolen last night./,Were the papers still safe?,N,,0,8,Some,24,2,1,12,1,1,12,740,1563003896955,N,2803,1
221,1,2,filler,filler_7,,/+/Some important papers which lay in the office were stolen last night./,Were the papers still safe?,N,,0,8,important,25,2,2,12,1,2,12,271,1563003897226,N,2803,1
221,1,2,filler,filler_7,,/+/Some important papers which lay in the office were stolen last night./,Were the papers still safe?,N,,0,8,papers,26,2,3,12,1,3,12,537,1563003897763,N,2803,1
221,1,2,filler,filler_7,,/+/Some important papers which lay in the office were stolen last night./,Were the papers still safe?,N,,0,8,which,27,2,4,12,1,4,12,1016,1563003898779,N,2803,1
221,1,2,filler,filler_7,,/+/Some important papers which lay in the office were stolen last night./,Were the papers still safe?,N,,0,8,lay,28,2,5,12,1,5,12,384,1563003899163,N,2803,1
221,1,2,filler,filler_7,,/+/Some important papers which lay in the office were stolen last night./,Were the papers still safe?,N,,0,8,in,29,2,6,12,1,6,12,448,1563003899611,N,2803,1
221,1,2,filler,filler_7,,/+/Some important papers which lay in the office were stolen last night./,Were the papers still safe?,N,,0,8,the,30,2,7,12,1,7,12,352,1563003899963,N,2803,1
221,1,2,filler,filler_7,,/+/Some important papers which lay in the office were stolen last night./,Were the papers still safe?,N,,0,8,office,31,2,8,12,1,8,12,391,1563003900354,N,2803,1
221,1,2,filler,filler_7,,/+/Some important papers which lay in the office were stolen last night./,Were the papers still safe?,N,,0,8,were,32,2,9,12,1,9,12,657,1563003901011,N,2803,1
221,1,2,filler,filler_7,,/+/Some important papers which lay in the office were stolen last night./,Were the papers still safe?,N,,0,8,stolen,33,2,10,12,1,10,12,520,1563003901531,N,2803,1
221,1,2,filler,filler_7,,/+/Some important papers which lay in the office were stolen last night./,Were the papers still safe?,N,,0,8,last,34,2,11,12,1,11,12,448,1563003901979,N,2803,1
221,1,2,filler,filler_7,,/+/Some important papers which lay in the office were stolen last night./,Were the papers still safe?,N,,0,8,night.,35,2,12,12,1,12,12,600,1563003902579,N,2803,1
221,1,3,target,target_1,G,/+/The cotton farmers * warned about the bad floods * had * no other crops./,Did the farmers warn about the floods?,N,,0,9,+,1,1,1,1,1,1,1,1350,1563003907234,N,5747,1
221,1,3,target,target_1,G,/+/The cotton farmers * warned about the bad floods * had * no other crops./,Did the farmers warn about the floods?,N,,0,9,The,2,2,1,12,1,1,3,400,1563003907634,N,5747,1
221,1,3,target,target_1,G,/+/The cotton farmers * warned about the bad floods * had * no other crops./,Did the farmers warn about the floods?,N,,0,9,cotton,3,2,2,12,1,2,3,1009,1563003908643,N,5747,1
221,1,3,target,target_1,G,/+/The cotton farmers * warned about the bad floods * had * no other crops./,Did the farmers warn about the floods?,N,,0,9,farmers,4,2,3,12,1,3,3,1136,1563003909779,N,5747,1
221,1,3,target,target_1,G,/+/The cotton farmers * warned about the bad floods * had * no other crops./,Did the farmers warn about the floods?,N,,0,9,warned,5,2,4,12,2,1,5,1735,1563003911514,N,5747,1
221,1,3,target,target_1,G,/+/The cotton farmers * warned about the bad floods * had * no other crops./,Did the farmers warn about the floods?,N,,0,9,about,6,2,5,12,2,2,5,545,1563003912059,N,5747,1
221,1,3,target,target_1,G,/+/The cotton farmers * warned about the bad floods * had * no other crops./,Did the farmers warn about the floods?,N,,0,9,the,7,2,6,12,2,3,5,1240,1563003913299,N,5747,1
221,1,3,target,target_1,G,/+/The cotton farmers * warned about the bad floods * had * no other crops./,Did the farmers warn about the floods?,N,,0,9,bad,8,2,7,12,2,4,5,504,1563003913803,N,5747,1
221,1,3,target,target_1,G,/+/The cotton farmers * warned about the bad floods * had * no other crops./,Did the farmers warn about the floods?,N,,0,9,floods,9,2,8,12,2,5,5,848,1563003914651,N,5747,1
221,1,3,target,target_1,G,/+/The cotton farmers * warned about the bad floods * had * no other crops./,Did the farmers warn about the floods?,N,,0,9,had,10,2,9,12,3,1,1,536,1563003915187,N,5747,1
221,1,3,target,target_1,G,/+/The cotton farmers * warned about the bad floods * had * no other crops./,Did the farmers warn about the floods?,N,,0,9,no,11,2,10,12,4,1,3,472,1563003915659,N,5747,1
221,1,3,target,target_1,G,/+/The cotton farmers * warned about the bad floods * had * no other crops./,Did the farmers warn about the floods?,N,,0,9,other,12,2,11,12,4,2,3,576,1563003916235,N,5747,1
221,1,3,target,target_1,G,/+/The cotton farmers * warned about the bad floods * had * no other crops./,Did the farmers warn about the floods?,N,,0,9,crops.,13,2,12,12,4,3,3,1095,1563003917330,N,5747,1
221,1,3,target,target_1,G,/+/The cotton farmers * warned about the bad floods * had * no other crops./,Did the farmers warn about the floods?,N,,0,9,other,14,2,11,12,4,2,3,223,1563003917554,N,5747,1
221,1,3,target,target_1,G,/+/The cotton farmers * warned about the bad floods * had * no other crops./,Did the farmers warn about the floods?,N,,0,9,no,15,2,10,12,4,1,3,432,1563003917986,N,5747,1
221,1,3,target,target_1,G,/+/The cotton farmers * warned about the bad floods * had * no other crops./,Did the farmers warn about the floods?,N,,0,9,had,16,2,9,12,3,1,1,688,1563003918675,N,5747,1
221,1,3,target,target_1,G,/+/The cotton farmers * warned about the bad floods * had * no other crops./,Did the farmers warn about the floods?,N,,0,9,floods,17,2,8,12,2,5,5,688,1563003919363,N,5747,1
221,1,3,target,target_1,G,/+/The cotton farmers * warned about the bad floods * had * no other crops./,Did the farmers warn about the floods?,N,,0,9,bad,18,2,7,12,2,4,5,127,1563003919490,N,5747,1
221,1,3,target,target_1,G,/+/The cotton farmers * warned about the bad floods * had * no other crops./,Did the farmers warn about the floods?,N,,0,9,the,19,2,6,12,2,3,5,200,1563003919690,N,5747,1
221,1,3,target,target_1,G,/+/The cotton farmers * warned about the bad floods * had * no other crops./,Did the farmers warn about the floods?,N,,0,9,about,20,2,5,12,2,2,5,183,1563003919874,N,5747,1
221,1,3,target,target_1,G,/+/The cotton farmers * warned about the bad floods * had * no other crops./,Did the farmers warn about the floods?,N,,0,9,warned,21,2,4,12,2,1,5,239,1563003920114,N,5747,1
221,1,3,target,target_1,G,/+/The cotton farmers * warned about the bad floods * had * no other crops./,Did the farmers warn about the floods?,N,,0,9,farmers,22,2,3,12,1,3,3,279,1563003920394,N,5747,1
221,1,3,target,target_1,G,/+/The cotton farmers * warned about the bad floods * had * no other crops./,Did the farmers warn about the floods?,N,,0,9,cotton,23,2,2,12,1,2,3,519,1563003920914,N,5747,1
221,1,3,target,target_1,G,/+/The cotton farmers * warned about the bad floods * had * no other crops./,Did the farmers warn about the floods?,N,,0,9,The,24,2,1,12,1,1,3,343,1563003921258,N,5747,1
221,1,3,target,target_1,G,/+/The cotton farmers * warned about the bad floods * had * no other crops./,Did the farmers warn about the floods?,N,,0,9,cotton,25,2,2,12,1,2,3,247,1563003921506,N,5747,1
221,1,3,target,target_1,G,/+/The cotton farmers * warned about the bad floods * had * no other crops./,Did the farmers warn about the floods?,N,,0,9,farmers,26,2,3,12,1,3,3,544,1563003922050,N,5747,1
221,1,3,target,target_1,G,/+/The cotton farmers * warned about the bad floods * had * no other crops./,Did the farmers warn about the floods?,N,,0,9,warned,27,2,4,12,2,1,5,776,1563003922827,N,5747,1
221,1,3,target,target_1,G,/+/The cotton farmers * warned about the bad floods * had * no other crops./,Did the farmers warn about the floods?,N,,0,9,about,28,2,5,12,2,2,5,927,1563003923754,N,5747,1
221,1,3,target,target_1,G,/+/The cotton farmers * warned about the bad floods * had * no other crops./,Did the farmers warn about the floods?,N,,0,9,the,29,2,6,12,2,3,5,375,1563003924130,N,5747,1
221,1,3,target,target_1,G,/+/The cotton farmers * warned about the bad floods * had * no other crops./,Did the farmers warn about the floods?,N,,0,9,bad,30,2,7,12,2,4,5,495,1563003924626,N,5747,1
221,1,3,target,target_1,G,/+/The cotton farmers * warned about the bad floods * had * no other crops./,Did the farmers warn about the floods?,N,,0,9,floods,31,2,8,12,2,5,5,528,1563003925154,N,5747,1
221,1,3,target,target_1,G,/+/The cotton farmers * warned about the bad floods * had * no other crops./,Did the farmers warn about the floods?,N,,0,9,had,32,2,9,12,3,1,1,1327,1563003926482,N,5747,1
221,1,3,target,target_1,G,/+/The cotton farmers * warned about the bad floods * had * no other crops./,Did the farmers warn about the floods?,N,,0,9,no,33,2,10,12,4,1,3,551,1563003927034,N,5747,1
221,1,3,target,target_1,G,/+/The cotton farmers * warned about the bad floods * had * no other crops./,Did the farmers warn about the floods?,N,,0,9,other,34,2,11,12,4,2,3,671,1563003927706,N,5747,1
221,1,3,target,target_1,G,/+/The cotton farmers * warned about the bad floods * had * no other crops./,Did the farmers warn about the floods?,N,,0,9,crops.,35,2,12,12,4,3,3,1248,1563003928954,N,5747,1
221,1,4,filler,filler_10,,/+/There was a big hole in the road which blocked the traffic./,Was there a big hole in the road?,Y,,0,10,+,1,1,1,1,1,1,1,2638,1563003937842,Y,2613,1
221,1,4,filler,filler_10,,/+/There was a big hole in the road which blocked the traffic./,Was there a big hole in the road?,Y,,0,10,There,2,2,1,12,1,1,12,535,1563003938377,Y,2613,1
221,1,4,filler,filler_10,,/+/There was a big hole in the road which blocked the traffic./,Was there a big hole in the road?,Y,,0,10,was,3,2,2,12,1,2,12,463,1563003938841,Y,2613,1
221,1,4,filler,filler_10,,/+/There was a big hole in the road which blocked the traffic./,Was there a big hole in the road?,Y,,0,10,a,4,2,3,12,1,3,12,456,1563003939298,Y,2613,1
221,1,4,filler,filler_10,,/+/There was a big hole in the road which blocked the traffic./,Was there a big hole in the road?,Y,,0,10,big,5,2,4,12,1,4,12,527,1563003939825,Y,2613,1
221,1,4,filler,filler_10,,/+/There was a big hole in the road which blocked the traffic./,Was there a big hole in the road?,Y,,0,10,hole,6,2,5,12,1,5,12,480,1563003940306,Y,2613,1
221,1,4,filler,filler_10,,/+/There was a big hole in the road which blocked the traffic./,Was there a big hole in the road?,Y,,0,10,in,7,2,6,12,1,6,12,440,1563003940746,Y,2613,1
221,1,4,filler,filler_10,,/+/There was a big hole in the road which blocked the traffic./,Was there a big hole in the road?,Y,,0,10,the,8,2,7,12,1,7,12,352,1563003941098,Y,2613,1
221,1,4,filler,filler_10,,/+/There was a big hole in the road which blocked the traffic./,Was there a big hole in the road?,Y,,0,10,road,9,2,8,12,1,8,12,544,1563003941642,Y,2613,1
221,1,4,filler,filler_10,,/+/There was a big hole in the road which blocked the traffic./,Was there a big hole in the road?,Y,,0,10,which,10,2,9,12,1,9,12,648,1563003942290,Y,2613,1
221,1,4,filler,filler_10,,/+/There was a big hole in the road which blocked the traffic./,Was there a big hole in the road?,Y,,0,10,blocked,11,2,10,12,1,10,12,992,1563003943282,Y,2613,1
221,1,4,filler,filler_10,,/+/There was a big hole in the road which blocked the traffic./,Was there a big hole in the road?,Y,,0,10,the,12,2,11,12,1,11,12,448,1563003943730,Y,2613,1
221,1,4,filler,filler_10,,/+/There was a big hole in the road which blocked the traffic./,Was there a big hole in the road?,Y,,0,10,traffic.,13,2,12,12,1,12,12,920,1563003944650,Y,2613,1
221,1,4,filler,filler_10,,/+/There was a big hole in the road which blocked the traffic./,Was there a big hole in the road?,Y,,0,10,the,14,2,11,12,1,11,12,303,1563003944953,Y,2613,1
221,1,4,filler,filler_10,,/+/There was a big hole in the road which blocked the traffic./,Was there a big hole in the road?,Y,,0,10,blocked,15,2,10,12,1,10,12,201,1563003945154,Y,2613,1
221,1,4,filler,filler_10,,/+/There was a big hole in the road which blocked the traffic./,Was there a big hole in the road?,Y,,0,10,which,16,2,9,12,1,9,12,192,1563003945346,Y,2613,1
221,1,4,filler,filler_10,,/+/There was a big hole in the road which blocked the traffic./,Was there a big hole in the road?,Y,,0,10,road,17,2,8,12,1,8,12,296,1563003945642,Y,2613,1
221,1,4,filler,filler_10,,/+/There was a big hole in the road which blocked the traffic./,Was there a big hole in the road?,Y,,0,10,the,18,2,7,12,1,7,12,351,1563003945993,Y,2613,1
221,1,4,filler,filler_10,,/+/There was a big hole in the road which blocked the traffic./,Was there a big hole in the road?,Y,,0,10,in,19,2,6,12,1,6,12,369,1563003946362,Y,2613,1
221,1,4,filler,filler_10,,/+/There was a big hole in the road which blocked the traffic./,Was there a big hole in the road?,Y,,0,10,hole,20,2,5,12,1,5,12,360,1563003946722,Y,2613,1
221,1,4,filler,filler_10,,/+/There was a big hole in the road which blocked the traffic./,Was there a big hole in the road?,Y,,0,10,big,21,2,4,12,1,4,12,680,1563003947402,Y,2613,1
221,1,4,filler,filler_10,,/+/There was a big hole in the road which blocked the traffic./,Was there a big hole in the road?,Y,,0,10,hole,22,2,5,12,1,5,12,296,1563003947698,Y,2613,1
221,1,4,filler,filler_10,,/+/There was a big hole in the road which blocked the traffic./,Was there a big hole in the road?,Y,,0,10,in,23,2,6,12,1,6,12,319,1563003948017,Y,2613,1
221,1,4,filler,filler_10,,/+/There was a big hole in the road which blocked the traffic./,Was there a big hole in the road?,Y,,0,10,the,24,2,7,12,1,7,12,273,1563003948290,Y,2613,1
221,1,4,filler,filler_10,,/+/There was a big hole in the road which blocked the traffic./,Was there a big hole in the road?,Y,,0,10,road,25,2,8,12,1,8,12,359,1563003948649,Y,2613,1
221,1,4,filler,filler_10,,/+/There was a big hole in the road which blocked the traffic./,Was there a big hole in the road?,Y,,0,10,which,26,2,9,12,1,9,12,689,1563003949338,Y,2613,1
221,1,4,filler,filler_10,,/+/There was a big hole in the road which blocked the traffic./,Was there a big hole in the road?,Y,,0,10,blocked,27,2,10,12,1,10,12,751,1563003950089,Y,2613,1
221,1,4,filler,filler_10,,/+/There was a big hole in the road which blocked the traffic./,Was there a big hole in the road?,Y,,0,10,the,28,2,11,12,1,11,12,529,1563003950618,Y,2613,1
221,1,4,filler,filler_10,,/+/There was a big hole in the road which blocked the traffic./,Was there a big hole in the road?,Y,,0,10,traffic.,29,2,12,12,1,12,12,1471,1563003952089,Y,2613,1
221,1,5,target,target_2,C,/+/The sunburned boys * who were * served the hot dogs * got * a stomach ache./,Did the boys serve the hot dogs?,N,,0,11,+,1,1,1,1,1,1,1,1182,1563003956387,N,3794,1
221,1,5,target,target_2,C,/+/The sunburned boys * who were * served the hot dogs * got * a stomach ache./,Did the boys serve the hot dogs?,N,,0,11,The,2,2,1,13,1,1,3,392,1563003956779,N,3794,1
221,1,5,target,target_2,C,/+/The sunburned boys * who were * served the hot dogs * got * a stomach ache./,Did the boys serve the hot dogs?,N,,0,11,sunburned,3,2,2,13,1,2,3,944,1563003957723,N,3794,1
221,1,5,target,target_2,C,/+/The sunburned boys * who were * served the hot dogs * got * a stomach ache./,Did the boys serve the hot dogs?,N,,0,11,boys,4,2,3,13,1,3,3,528,1563003958251,N,3794,1
221,1,5,target,target_2,C,/+/The sunburned boys * who were * served the hot dogs * got * a stomach ache./,Did the boys serve the hot dogs?,N,,0,11,who,5,2,4,13,2,1,2,440,1563003958691,N,3794,1
221,1,5,target,target_2,C,/+/The sunburned boys * who were * served the hot dogs * got * a stomach ache./,Did the boys serve the hot dogs?,N,,0,11,were,6,2,5,13,2,2,2,463,1563003959154,N,3794,1
221,1,5,target,target_2,C,/+/The sunburned boys * who were * served the hot dogs * got * a stomach ache./,Did the boys serve the hot dogs?,N,,0,11,served,7,2,6,13,3,1,4,928,1563003960082,N,3794,1
221,1,5,target,target_2,C,/+/The sunburned boys * who were * served the hot dogs * got * a stomach ache./,Did the boys serve the hot dogs?,N,,0,11,the,8,2,7,13,3,2,4,457,1563003960539,N,3794,1
221,1,5,target,target_2,C,/+/The sunburned boys * who were * served the hot dogs * got * a stomach ache./,Did the boys serve the hot dogs?,N,,0,11,hot,9,2,8,13,3,3,4,559,1563003961098,N,3794,1
221,1,5,target,target_2,C,/+/The sunburned boys * who were * served the hot dogs * got * a stomach ache./,Did the boys serve the hot dogs?,N,,0,11,dogs,10,2,9,13,3,4,4,569,1563003961667,N,3794,1
221,1,5,target,target_2,C,/+/The sunburned boys * who were * served the hot dogs * got * a stomach ache./,Did the boys serve the hot dogs?,N,,0,11,got,11,2,10,13,4,1,1,527,1563003962194,N,3794,1
221,1,5,target,target_2,C,/+/The sunburned boys * who were * served the hot dogs * got * a stomach ache./,Did the boys serve the hot dogs?,N,,0,11,a,12,2,11,13,5,1,3,753,1563003962947,N,3794,1
221,1,5,target,target_2,C,/+/The sunburned boys * who were * served the hot dogs * got * a stomach ache./,Did the boys serve the hot dogs?,N,,0,11,stomach,13,2,12,13,5,2,3,1680,1563003964627,N,3794,1
221,1,5,target,target_2,C,/+/The sunburned boys * who were * served the hot dogs * got * a stomach ache./,Did the boys serve the hot dogs?,N,,0,11,ache.,14,2,13,13,5,3,3,3432,1563003968059,N,3794,1
221,1,6,filler,filler_17,,/+/The students who failed the exam were asked to take it again./,Should all students take the exam again?,N,,0,12,+,1,1,1,1,1,1,1,6647,1563003979002,N,4244,1
221,1,6,filler,filler_17,,/+/The students who failed the exam were asked to take it again./,Should all students take the exam again?,N,,0,12,The,2,2,1,12,1,1,12,1097,1563003980099,N,4244,1
221,1,6,filler,filler_17,,/+/The students who failed the exam were asked to take it again./,Should all students take the exam again?,N,,0,12,students,3,2,2,12,1,2,12,1303,1563003981402,N,4244,1
221,1,6,filler,filler_17,,/+/The students who failed the exam were asked to take it again./,Should all students take the exam again?,N,,0,12,who,4,2,3,12,1,3,12,777,1563003982179,N,4244,1
221,1,6,filler,filler_17,,/+/The students who failed the exam were asked to take it again./,Should all students take the exam again?,N,,0,12,failed,5,2,4,12,1,4,12,664,1563003982843,N,4244,1
221,1,6,filler,filler_17,,/+/The students who failed the exam were asked to take it again./,Should all students take the exam again?,N,,0,12,the,6,2,5,12,1,5,12,776,1563003983619,N,4244,1
221,1,6,filler,filler_17,,/+/The students who failed the exam were asked to take it again./,Should all students take the exam again?,N,,0,12,exam,7,2,6,12,1,6,12,1256,1563003984875,N,4244,1
221,1,6,filler,filler_17,,/+/The students who failed the exam were asked to take it again./,Should all students take the exam again?,N,,0,12,were,8,2,7,12,1,7,12,551,1563003985426,N,4244,1
221,1,6,filler,filler_17,,/+/The students who failed the exam were asked to take it again./,Should all students take the exam again?,N,,0,12,asked,9,2,8,12,1,8,12,529,1563003985955,N,4244,1
221,1,6,filler,filler_17,,/+/The students who failed the exam were asked to take it again./,Should all students take the exam again?,N,,0,12,to,10,2,9,12,1,9,12,1200,1563003987155,N,4244,1
221,1,6,filler,filler_17,,/+/The students who failed the exam were asked to take it again./,Should all students take the exam again?,N,,0,12,take,11,2,10,12,1,10,12,423,1563003987578,N,4244,1
221,1,6,filler,filler_17,,/+/The students who failed the exam were asked to take it again./,Should all students take the exam again?,N,,0,12,it,12,2,11,12,1,11,12,473,1563003988051,N,4244,1
221,1,6,filler,filler_17,,/+/The students who failed the exam were asked to take it again./,Should all students take the exam again?,N,,0,12,again.,13,2,12,12,1,12,12,1503,1563003989554,N,4244,1
221,1,7,filler,filler_25,,/+/The suitcase which Mike bought has been broken down by his son./,Has the suitcase been broken by Mike?,N,,0,13,+,1,1,1,1,1,1,1,6895,1563004001195,N,3100,1
221,1,7,filler,filler_25,,/+/The suitcase which Mike bought has been broken down by his son./,Has the suitcase been broken by Mike?,N,,0,13,The,2,2,1,12,1,1,12,455,1563004001650,N,3100,1
221,1,7,filler,filler_25,,/+/The suitcase which Mike bought has been broken down by his son./,Has the suitcase been broken by Mike?,N,,0,13,suitcase,3,2,2,12,1,2,12,1833,1563004003483,N,3100,1
221,1,7,filler,filler_25,,/+/The suitcase which Mike bought has been broken down by his son./,Has the suitcase been broken by Mike?,N,,0,13,which,4,2,3,12,1,3,12,560,1563004004043,N,3100,1
221,1,7,filler,filler_25,,/+/The suitcase which Mike bought has been broken down by his son./,Has the suitcase been broken by Mike?,N,,0,13,Mike,5,2,4,12,1,4,12,600,1563004004643,N,3100,1
221,1,7,filler,filler_25,,/+/The suitcase which Mike bought has been broken down by his son./,Has the suitcase been broken by Mike?,N,,0,13,bought,6,2,5,12,1,5,12,840,1563004005483,N,3100,1
221,1,7,filler,filler_25,,/+/The suitcase which Mike bought has been broken down by his son./,Has the suitcase been broken by Mike?,N,,0,13,has,7,2,6,12,1,6,12,584,1563004006067,N,3100,1
221,1,7,filler,filler_25,,/+/The suitcase which Mike bought has been broken down by his son./,Has the suitcase been broken by Mike?,N,,0,13,been,8,2,7,12,1,7,12,448,1563004006515,N,3100,1
221,1,7,filler,filler_25,,/+/The suitcase which Mike bought has been broken down by his son./,Has the suitcase been broken by Mike?,N,,0,13,broken,9,2,8,12,1,8,12,576,1563004007091,N,3100,1
221,1,7,filler,filler_25,,/+/The suitcase which Mike bought has been broken down by his son./,Has the suitcase been broken by Mike?,N,,0,13,down,10,2,9,12,1,9,12,560,1563004007651,N,3100,1
221,1,7,filler,filler_25,,/+/The suitcase which Mike bought has been broken down by his son./,Has the suitcase been broken by Mike?,N,,0,13,by,11,2,10,12,1,10,12,544,1563004008195,N,3100,1
221,1,7,filler,filler_25,,/+/The suitcase which Mike bought has been broken down by his son./,Has the suitcase been broken by Mike?,N,,0,13,his,12,2,11,12,1,11,12,416,1563004008611,N,3100,1
221,1,7,filler,filler_25,,/+/The suitcase which Mike bought has been broken down by his son./,Has the suitcase been broken by Mike?,N,,0,13,son.,13,2,12,12,1,12,12,2263,1563004010874,N,3100,1
221,1,8,filler,filler_24,,/+/The roommate has married the man who comes from the west of China./,Has the roomate married?,Y,,0,14,+,1,1,1,1,1,1,1,1471,1563004015947,Y,2778,1
221,1,8,filler,filler_24,,/+/The roommate has married the man who comes from the west of China./,Has the roomate married?,Y,,0,14,The,2,2,1,13,1,1,13,2744,1563004018691,Y,2778,1
221,1,8,filler,filler_24,,/+/The roommate has married the man who comes from the west of China./,Has the roomate married?,Y,,0,14,roommate,3,2,2,13,1,2,13,863,1563004019555,Y,2778,1
221,1,8,filler,filler_24,,/+/The roommate has married the man who comes from the west of China./,Has the roomate married?,Y,,0,14,has,4,2,3,13,1,3,13,454,1563004020010,Y,2778,1
221,1,8,filler,filler_24,,/+/The roommate has married the man who comes from the west of China./,Has the roomate married?,Y,,0,14,married,5,2,4,13,1,4,13,672,1563004020683,Y,2778,1
221,1,8,filler,filler_24,,/+/The roommate has married the man who comes from the west of China./,Has the roomate married?,Y,,0,14,the,6,2,5,13,1,5,13,663,1563004021347,Y,2778,1
221,1,8,filler,filler_24,,/+/The roommate has married the man who comes from the west of China./,Has the roomate married?,Y,,0,14,man,7,2,6,13,1,6,13,535,1563004021883,Y,2778,1
221,1,8,filler,filler_24,,/+/The roommate has married the man who comes from the west of China./,Has the roomate married?,Y,,0,14,who,8,2,7,13,1,7,13,712,1563004022595,Y,2778,1
221,1,8,filler,filler_24,,/+/The roommate has married the man who comes from the west of China./,Has the roomate married?,Y,,0,14,comes,9,2,8,13,1,8,13,591,1563004023187,Y,2778,1
221,1,8,filler,filler_24,,/+/The roommate has married the man who comes from the west of China./,Has the roomate married?,Y,,0,14,from,10,2,9,13,1,9,13,520,1563004023707,Y,2778,1
221,1,8,filler,filler_24,,/+/The roommate has married the man who comes from the west of China./,Has the roomate married?,Y,,0,14,the,11,2,10,13,1,10,13,520,1563004024227,Y,2778,1
221,1,8,filler,filler_24,,/+/The roommate has married the man who comes from the west of China./,Has the roomate married?,Y,,0,14,west,12,2,11,13,1,11,13,591,1563004024819,Y,2778,1
221,1,8,filler,filler_24,,/+/The roommate has married the man who comes from the west of China./,Has the roomate married?,Y,,0,14,of,13,2,12,13,1,12,13,496,1563004025315,Y,2778,1
221,1,8,filler,filler_24,,/+/The roommate has married the man who comes from the west of China./,Has the roomate married?,Y,,0,14,China.,14,2,13,13,1,13,13,1816,1563004027131,Y,2778,1
221,1,8,filler,filler_24,,/+/The roommate has married the man who comes from the west of China./,Has the roomate married?,Y,,0,14,of,15,2,12,13,1,12,13,500,1563004027631,Y,2778,1
221,1,8,filler,filler_24,,/+/The roommate has married the man who comes from the west of China./,Has the roomate married?,Y,,0,14,west,16,2,11,13,1,11,13,33,1563004027664,Y,2778,1
221,1,8,filler,filler_24,,/+/The roommate has married the man who comes from the west of China./,Has the roomate married?,Y,,0,14,the,17,2,10,13,1,10,13,33,1563004027697,Y,2778,1
221,1,8,filler,filler_24,,/+/The roommate has married the man who comes from the west of China./,Has the roomate married?,Y,,0,14,from,18,2,9,13,1,9,13,33,1563004027730,Y,2778,1
221,1,8,filler,filler_24,,/+/The roommate has married the man who comes from the west of China./,Has the roomate married?,Y,,0,14,comes,19,2,8,13,1,8,13,33,1563004027763,Y,2778,1
221,1,8,filler,filler_24,,/+/The roommate has married the man who comes from the west of China./,Has the roomate married?,Y,,0,14,who,20,2,7,13,1,7,13,33,1563004027796,Y,2778,1
221,1,8,filler,filler_24,,/+/The roommate has married the man who comes from the west of China./,Has the roomate married?,Y,,0,14,man,21,2,6,13,1,6,13,33,1563004027829,Y,2778,1
221,1,8,filler,filler_24,,/+/The roommate has married the man who comes from the west of China./,Has the roomate married?,Y,,0,14,the,22,2,5,13,1,5,13,33,1563004027862,Y,2778,1
221,1,8,filler,filler_24,,/+/The roommate has married the man who comes from the west of China./,Has the roomate married?,Y,,0,14,married,23,2,4,13,1,4,13,33,1563004027895,Y,2778,1
221,1,8,filler,filler_24,,/+/The roommate has married the man who comes from the west of China./,Has the roomate married?,Y,,0,14,has,24,2,3,13,1,3,13,33,1563004027928,Y,2778,1
221,1,8,filler,filler_24,,/+/The roommate has married the man who comes from the west of China./,Has the roomate married?,Y,,0,14,roommate,25,2,2,13,1,2,13,33,1563004027961,Y,2778,1
221,1,8,filler,filler_24,,/+/The roommate has married the man who comes from the west of China./,Has the roomate married?,Y,,0,14,The,26,2,1,13,1,1,13,498,1563004028459,Y,2778,1
221,1,8,filler,filler_24,,/+/The roommate has married the man who comes from the west of China./,Has the roomate married?,Y,,0,14,roommate,27,2,2,13,1,2,13,288,1563004028747,Y,2778,1
221,1,8,filler,filler_24,,/+/The roommate has married the man who comes from the west of China./,Has the roomate married?,Y,,0,14,has,28,2,3,13,1,3,13,415,1563004029162,Y,2778,1
221,1,8,filler,filler_24,,/+/The roommate has married the man who comes from the west of China./,Has the roomate married?,Y,,0,14,married,29,2,4,13,1,4,13,520,1563004029683,Y,2778,1
221,1,8,filler,filler_24,,/+/The roommate has married the man who comes from the west of China./,Has the roomate married?,Y,,0,14,the,30,2,5,13,1,5,13,288,1563004029971,Y,2778,1
221,1,8,filler,filler_24,,/+/The roommate has married the man who comes from the west of China./,Has the roomate married?,Y,,0,14,man,31,2,6,13,1,6,13,632,1563004030603,Y,2778,1
221,1,8,filler,filler_24,,/+/The roommate has married the man who comes from the west of China./,Has the roomate married?,Y,,0,14,who,32,2,7,13,1,7,13,416,1563004031019,Y,2778,1
221,1,8,filler,filler_24,,/+/The roommate has married the man who comes from the west of China./,Has the roomate married?,Y,,0,14,comes,33,2,8,13,1,8,13,448,1563004031467,Y,2778,1
221,1,8,filler,filler_24,,/+/The roommate has married the man who comes from the west of China./,Has the roomate married?,Y,,0,14,from,34,2,9,13,1,9,13,264,1563004031731,Y,2778,1
221,1,8,filler,filler_24,,/+/The roommate has married the man who comes from the west of China./,Has the roomate married?,Y,,0,14,the,35,2,10,13,1,10,13,224,1563004031955,Y,2778,1
221,1,8,filler,filler_24,,/+/The roommate has married the man who comes from the west of China./,Has the roomate married?,Y,,0,14,west,36,2,11,13,1,11,13,192,1563004032147,Y,2778,1
221,1,8,filler,filler_24,,/+/The roommate has married the man who comes from the west of China./,Has the roomate married?,Y,,0,14,of,37,2,12,13,1,12,13,360,1563004032507,Y,2778,1
221,1,8,filler,filler_24,,/+/The roommate has married the man who comes from the west of China./,Has the roomate married?,Y,,0,14,China.,38,2,13,13,1,13,13,464,1563004032971,Y,2778,1
221,1,9,target,target_15,G,/+/The confused student * asked about a question * lowered * his head silently./,Did the student ask about a question?,N,,0,15,+,1,1,1,1,1,1,1,2160,1563004038411,N,3771,1
221,1,9,target,target_15,G,/+/The confused student * asked about a question * lowered * his head silently./,Did the student ask about a question?,N,,0,15,The,2,2,1,11,1,1,3,576,1563004038987,N,3771,1
221,1,9,target,target_15,G,/+/The confused student * asked about a question * lowered * his head silently./,Did the student ask about a question?,N,,0,15,confused,3,2,2,11,1,2,3,1040,1563004040027,N,3771,1
221,1,9,target,target_15,G,/+/The confused student * asked about a question * lowered * his head silently./,Did the student ask about a question?,N,,0,15,student,4,2,3,11,1,3,3,879,1563004040907,N,3771,1
221,1,9,target,target_15,G,/+/The confused student * asked about a question * lowered * his head silently./,Did the student ask about a question?,N,,0,15,asked,5,2,4,11,2,1,4,1008,1563004041915,N,3771,1
221,1,9,target,target_15,G,/+/The confused student * asked about a question * lowered * his head silently./,Did the student ask about a question?,N,,0,15,about,6,2,5,11,2,2,4,832,1563004042747,N,3771,1
221,1,9,target,target_15,G,/+/The confused student * asked about a question * lowered * his head silently./,Did the student ask about a question?,N,,0,15,a,7,2,6,11,2,3,4,864,1563004043611,N,3771,1
221,1,9,target,target_15,G,/+/The confused student * asked about a question * lowered * his head silently./,Did the student ask about a question?,N,,0,15,question,8,2,7,11,2,4,4,584,1563004044195,N,3771,1
221,1,9,target,target_15,G,/+/The confused student * asked about a question * lowered * his head silently./,Did the student ask about a question?,N,,0,15,lowered,9,2,8,11,3,1,1,2552,1563004046747,N,3771,1
221,1,9,target,target_15,G,/+/The confused student * asked about a question * lowered * his head silently./,Did the student ask about a question?,N,,0,15,his,10,2,9,11,4,1,3,904,1563004047651,N,3771,1
221,1,9,target,target_15,G,/+/The confused student * asked about a question * lowered * his head silently./,Did the student ask about a question?,N,,0,15,head,11,2,10,11,4,2,3,1216,1563004048867,N,3771,1
221,1,9,target,target_15,G,/+/The confused student * asked about a question * lowered * his head silently./,Did the student ask about a question?,N,,0,15,silently.,12,2,11,11,4,3,3,832,1563004049699,N,3771,1
221,1,9,target,target_15,G,/+/The confused student * asked about a question * lowered * his head silently./,Did the student ask about a question?,N,,0,15,head,13,2,10,11,4,2,3,500,1563004050199,N,3771,1
221,1,9,target,target_15,G,/+/The confused student * asked about a question * lowered * his head silently./,Did the student ask about a question?,N,,0,15,his,14,2,9,11,4,1,3,33,1563004050232,N,3771,1
221,1,9,target,target_15,G,/+/The confused student * asked about a question * lowered * his head silently./,Did the student ask about a question?,N,,0,15,lowered,15,2,8,11,3,1,1,33,1563004050265,N,3771,1
221,1,9,target,target_15,G,/+/The confused student * asked about a question * lowered * his head silently./,Did the student ask about a question?,N,,0,15,question,16,2,7,11,2,4,4,33,1563004050298,N,3771,1
221,1,9,target,target_15,G,/+/The confused student * asked about a question * lowered * his head silently./,Did the student ask about a question?,N,,0,15,a,17,2,6,11,2,3,4,32,1563004050330,N,3771,1
221,1,9,target,target_15,G,/+/The confused student * asked about a question * lowered * his head silently./,Did the student ask about a question?,N,,0,15,about,18,2,5,11,2,2,4,33,1563004050363,N,3771,1
221,1,9,target,target_15,G,/+/The confused student * asked about a question * lowered * his head silently./,Did the student ask about a question?,N,,0,15,asked,19,2,4,11,2,1,4,33,1563004050396,N,3771,1
221,1,9,target,target_15,G,/+/The confused student * asked about a question * lowered * his head silently./,Did the student ask about a question?,N,,0,15,student,20,2,3,11,1,3,3,33,1563004050429,N,3771,1
221,1,9,target,target_15,G,/+/The confused student * asked about a question * lowered * his head silently./,Did the student ask about a question?,N,,0,15,confused,21,2,2,11,1,2,3,582,1563004051011,N,3771,1
221,1,9,target,target_15,G,/+/The confused student * asked about a question * lowered * his head silently./,Did the student ask about a question?,N,,0,15,The,22,2,1,11,1,1,3,447,1563004051458,N,3771,1
221,1,9,target,target_15,G,/+/The confused student * asked about a question * lowered * his head silently./,Did the student ask about a question?,N,,0,15,confused,23,2,2,11,1,2,3,233,1563004051691,N,3771,1
221,1,9,target,target_15,G,/+/The confused student * asked about a question * lowered * his head silently./,Did the student ask about a question?,N,,0,15,student,24,2,3,11,1,3,3,336,1563004052027,N,3771,1
221,1,9,target,target_15,G,/+/The confused student * asked about a question * lowered * his head silently./,Did the student ask about a question?,N,,0,15,asked,25,2,4,11,2,1,4,568,1563004052595,N,3771,1
221,1,9,target,target_15,G,/+/The confused student * asked about a question * lowered * his head silently./,Did the student ask about a question?,N,,0,15,about,26,2,5,11,2,2,4,576,1563004053171,N,3771,1
221,1,9,target,target_15,G,/+/The confused student * asked about a question * lowered * his head silently./,Did the student ask about a question?,N,,0,15,a,27,2,6,11,2,3,4,400,1563004053571,N,3771,1
221,1,9,target,target_15,G,/+/The confused student * asked about a question * lowered * his head silently./,Did the student ask about a question?,N,,0,15,question,28,2,7,11,2,4,4,568,1563004054139,N,3771,1
221,1,9,target,target_15,G,/+/The confused student * asked about a question * lowered * his head silently./,Did the student ask about a question?,N,,0,15,lowered,29,2,8,11,3,1,1,987,1563004055132,N,3771,1
221,1,9,target,target_15,G,/+/The confused student * asked about a question * lowered * his head silently./,Did the student ask about a question?,N,,0,15,question,30,2,7,11,2,4,4,919,1563004056051,N,3771,1
221,1,9,target,target_15,G,/+/The confused student * asked about a question * lowered * his head silently./,Did the student ask about a question?,N,,0,15,a,31,2,6,11,2,3,4,216,1563004056267,N,3771,1
221,1,9,target,target_15,G,/+/The confused student * asked about a question * lowered * his head silently./,Did the student ask about a question?,N,,0,15,about,32,2,5,11,2,2,4,247,1563004056514,N,3771,1
221,1,9,target,target_15,G,/+/The confused student * asked about a question * lowered * his head silently./,Did the student ask about a question?,N,,0,15,asked,33,2,4,11,2,1,4,505,1563004057019,N,3771,1
221,1,9,target,target_15,G,/+/The confused student * asked about a question * lowered * his head silently./,Did the student ask about a question?,N,,0,15,about,34,2,5,11,2,2,4,280,1563004057299,N,3771,1
221,1,9,target,target_15,G,/+/The confused student * asked about a question * lowered * his head silently./,Did the student ask about a question?,N,,0,15,a,35,2,6,11,2,3,4,368,1563004057667,N,3771,1
221,1,9,target,target_15,G,/+/The confused student * asked about a question * lowered * his head silently./,Did the student ask about a question?,N,,0,15,question,36,2,7,11,2,4,4,448,1563004058115,N,3771,1
221,1,9,target,target_15,G,/+/The confused student * asked about a question * lowered * his head silently./,Did the student ask about a question?,N,,0,15,lowered,37,2,8,11,3,1,1,280,1563004058395,N,3771,1
221,1,9,target,target_15,G,/+/The confused student * asked about a question * lowered * his head silently./,Did the student ask about a question?,N,,0,15,his,38,2,9,11,4,1,3,336,1563004058731,N,3771,1
221,1,9,target,target_15,G,/+/The confused student * asked about a question * lowered * his head silently./,Did the student ask about a question?,N,,0,15,head,39,2,10,11,4,2,3,416,1563004059147,N,3771,1
221,1,9,target,target_15,G,/+/The confused student * asked about a question * lowered * his head silently./,Did the student ask about a question?,N,,0,15,silently.,40,2,11,11,4,3,3,2056,1563004061203,N,3771,1
221,1,10,filler,filler_22,,/+/The girl's life was saved because the doctor acted so well./,Did the girl die?,N,,0,16,+,1,1,1,1,1,1,1,1394,1563004066876,N,2052,1
221,1,10,filler,filler_22,,/+/The girl's life was saved because the doctor acted so well./,Did the girl die?,N,,0,16,The,2,2,1,11,1,1,11,511,1563004067387,N,2052,1
221,1,10,filler,filler_22,,/+/The girl's life was saved because the doctor acted so well./,Did the girl die?,N,,0,16,girl's,3,2,2,11,1,2,11,544,1563004067931,N,2052,1
221,1,10,filler,filler_22,,/+/The girl's life was saved because the doctor acted so well./,Did the girl die?,N,,0,16,life,4,2,3,11,1,3,11,1384,1563004069315,N,2052,1
221,1,10,filler,filler_22,,/+/The girl's life was saved because the doctor acted so well./,Did the girl die?,N,,0,16,was,5,2,4,11,1,4,11,504,1563004069819,N,2052,1
221,1,10,filler,filler_22,,/+/The girl's life was saved because the doctor acted so well./,Did the girl die?,N,,0,16,saved,6,2,5,11,1,5,11,736,1563004070555,N,2052,1
221,1,10,filler,filler_22,,/+/The girl's life was saved because the doctor acted so well./,Did the girl die?,N,,0,16,because,7,2,6,11,1,6,11,576,1563004071131,N,2052,1
221,1,10,filler,filler_22,,/+/The girl's life was saved because the doctor acted so well./,Did the girl die?,N,,0,16,the,8,2,7,11,1,7,11,567,1563004071698,N,2052,1
221,1,10,filler,filler_22,,/+/The girl's life was saved because the doctor acted so well./,Did the girl die?,N,,0,16,doctor,9,2,8,11,1,8,11,497,1563004072195,N,2052,1
221,1,10,filler,filler_22,,/+/The girl's life was saved because the doctor acted so well./,Did the girl die?,N,,0,16,acted,10,2,9,11,1,9,11,632,1563004072827,N,2052,1
221,1,10,filler,filler_22,,/+/The girl's life was saved because the doctor acted so well./,Did the girl die?,N,,0,16,so,11,2,10,11,1,10,11,456,1563004073283,N,2052,1
221,1,10,filler,filler_22,,/+/The girl's life was saved because the doctor acted so well./,Did the girl die?,N,,0,16,well.,12,2,11,11,1,11,11,1272,1563004074555,N,2052,1
221,1,11,target,target_4,G,/+/The convicted criminal * watched at the railway station * was * following the boy./,Did someone watch the criminal?,Y,,0,17,+,1,1,1,1,1,1,1,1734,1563004078842,Y,2148,1
221,1,11,target,target_4,G,/+/The convicted criminal * watched at the railway station * was * following the boy./,Did someone watch the criminal?,Y,,0,17,The,2,2,1,12,1,1,3,689,1563004079531,Y,2148,1
221,1,11,target,target_4,G,/+/The convicted criminal * watched at the railway station * was * following the boy./,Did someone watch the criminal?,Y,,0,17,convicted,3,2,2,12,1,2,3,1592,1563004081123,Y,2148,1
221,1,11,target,target_4,G,/+/The convicted criminal * watched at the railway station * was * following the boy./,Did someone watch the criminal?,Y,,0,17,criminal,4,2,3,12,1,3,3,1520,1563004082643,Y,2148,1
221,1,11,target,target_4,G,/+/The convicted criminal * watched at the railway station * was * following the boy./,Did someone watch the criminal?,Y,,0,17,watched,5,2,4,12,2,1,5,864,1563004083507,Y,2148,1
221,1,11,target,target_4,G,/+/The convicted criminal * watched at the railway station * was * following the boy./,Did someone watch the criminal?,Y,,0,17,at,6,2,5,12,2,2,5,600,1563004084107,Y,2148,1
221,1,11,target,target_4,G,/+/The convicted criminal * watched at the railway station * was * following the boy./,Did someone watch the criminal?,Y,,0,17,the,7,2,6,12,2,3,5,624,1563004084731,Y,2148,1
221,1,11,target,target_4,G,/+/The convicted criminal * watched at the railway station * was * following the boy./,Did someone watch the criminal?,Y,,0,17,railway,8,2,7,12,2,4,5,752,1563004085483,Y,2148,1
221,1,11,target,target_4,G,/+/The convicted criminal * watched at the railway station * was * following the boy./,Did someone watch the criminal?,Y,,0,17,station,9,2,8,12,2,5,5,568,1563004086051,Y,2148,1
221,1,11,target,target_4,G,/+/The convicted criminal * watched at the railway station * was * following the boy./,Did someone watch the criminal?,Y,,0,17,was,10,2,9,12,3,1,1,440,1563004086491,Y,2148,1
221,1,11,target,target_4,G,/+/The convicted criminal * watched at the railway station * was * following the boy./,Did someone watch the criminal?,Y,,0,17,following,11,2,10,12,4,1,3,584,1563004087075,Y,2148,1
221,1,11,target,target_4,G,/+/The convicted criminal * watched at the railway station * was * following the boy./,Did someone watch the criminal?,Y,,0,17,the,12,2,11,12,4,2,3,416,1563004087491,Y,2148,1
221,1,11,target,target_4,G,/+/The convicted criminal * watched at the railway station * was * following the boy./,Did someone watch the criminal?,Y,,0,17,boy.,13,2,12,12,4,3,3,736,1563004088227,Y,2148,1
221,1,11,target,target_4,G,/+/The convicted criminal * watched at the railway station * was * following the boy./,Did someone watch the criminal?,Y,,0,17,the,14,2,11,12,4,2,3,232,1563004088459,Y,2148,1
221,1,11,target,target_4,G,/+/The convicted criminal * watched at the railway station * was * following the boy./,Did someone watch the criminal?,Y,,0,17,following,15,2,10,12,4,1,3,176,1563004088635,Y,2148,1
221,1,11,target,target_4,G,/+/The convicted criminal * watched at the railway station * was * following the boy./,Did someone watch the criminal?,Y,,0,17,was,16,2,9,12,3,1,1,160,1563004088795,Y,2148,1
221,1,11,target,target_4,G,/+/The convicted criminal * watched at the railway station * was * following the boy./,Did someone watch the criminal?,Y,,0,17,station,17,2,8,12,2,5,5,499,1563004089294,Y,2148,1
221,1,11,target,target_4,G,/+/The convicted criminal * watched at the railway station * was * following the boy./,Did someone watch the criminal?,Y,,0,17,railway,18,2,7,12,2,4,5,228,1563004089523,Y,2148,1
221,1,11,target,target_4,G,/+/The convicted criminal * watched at the railway station * was * following the boy./,Did someone watch the criminal?,Y,,0,17,the,19,2,6,12,2,3,5,192,1563004089715,Y,2148,1
221,1,11,target,target_4,G,/+/The convicted criminal * watched at the railway station * was * following the boy./,Did someone watch the criminal?,Y,,0,17,at,20,2,5,12,2,2,5,167,1563004089882,Y,2148,1
221,1,11,target,target_4,G,/+/The convicted criminal * watched at the railway station * was * following the boy./,Did someone watch the criminal?,Y,,0,17,watched,21,2,4,12,2,1,5,424,1563004090307,Y,2148,1
221,1,11,target,target_4,G,/+/The convicted criminal * watched at the railway station * was * following the boy./,Did someone watch the criminal?,Y,,0,17,criminal,22,2,3,12,1,3,3,840,1563004091147,Y,2148,1
221,1,11,target,target_4,G,/+/The convicted criminal * watched at the railway station * was * following the boy./,Did someone watch the criminal?,Y,,0,17,watched,23,2,4,12,2,1,5,336,1563004091483,Y,2148,1
221,1,11,target,target_4,G,/+/The convicted criminal * watched at the railway station * was * following the boy./,Did someone watch the criminal?,Y,,0,17,at,24,2,5,12,2,2,5,304,1563004091787,Y,2148,1
221,1,11,target,target_4,G,/+/The convicted criminal * watched at the railway station * was * following the boy./,Did someone watch the criminal?,Y,,0,17,the,25,2,6,12,2,3,5,287,1563004092074,Y,2148,1
221,1,11,target,target_4,G,/+/The convicted criminal * watched at the railway station * was * following the boy./,Did someone watch the criminal?,Y,,0,17,railway,26,2,7,12,2,4,5,1048,1563004093122,Y,2148,1
221,1,11,target,target_4,G,/+/The convicted criminal * watched at the railway station * was * following the boy./,Did someone watch the criminal?,Y,,0,17,station,27,2,8,12,2,5,5,537,1563004093659,Y,2148,1
221,1,11,target,target_4,G,/+/The convicted criminal * watched at the railway station * was * following the boy./,Did someone watch the criminal?,Y,,0,17,was,28,2,9,12,3,1,1,1512,1563004095171,Y,2148,1
221,1,11,target,target_4,G,/+/The convicted criminal * watched at the railway station * was * following the boy./,Did someone watch the criminal?,Y,,0,17,following,29,2,10,12,4,1,3,272,1563004095443,Y,2148,1
221,1,11,target,target_4,G,/+/The convicted criminal * watched at the railway station * was * following the boy./,Did someone watch the criminal?,Y,,0,17,the,30,2,11,12,4,2,3,768,1563004096211,Y,2148,1
221,1,11,target,target_4,G,/+/The convicted criminal * watched at the railway station * was * following the boy./,Did someone watch the criminal?,Y,,0,17,boy.,31,2,12,12,4,3,3,536,1563004096747,Y,2148,1
221,1,11,target,target_4,G,/+/The convicted criminal * watched at the railway station * was * following the boy./,Did someone watch the criminal?,Y,,0,17,the,32,2,11,12,4,2,3,168,1563004096915,Y,2148,1
221,1,11,target,target_4,G,/+/The convicted criminal * watched at the railway station * was * following the boy./,Did someone watch the criminal?,Y,,0,17,following,33,2,10,12,4,1,3,167,1563004097082,Y,2148,1
221,1,11,target,target_4,G,/+/The convicted criminal * watched at the railway station * was * following the boy./,Did someone watch the criminal?,Y,,0,17,was,34,2,9,12,3,1,1,161,1563004097243,Y,2148,1
221,1,11,target,target_4,G,/+/The convicted criminal * watched at the railway station * was * following the boy./,Did someone watch the criminal?,Y,,0,17,station,35,2,8,12,2,5,5,160,1563004097403,Y,2148,1
221,1,11,target,target_4,G,/+/The convicted criminal * watched at the railway station * was * following the boy./,Did someone watch the criminal?,Y,,0,17,railway,36,2,7,12,2,4,5,312,1563004097715,Y,2148,1
221,1,11,target,target_4,G,/+/The convicted criminal * watched at the railway station * was * following the boy./,Did someone watch the criminal?,Y,,0,17,the,37,2,6,12,2,3,5,399,1563004098114,Y,2148,1
221,1,11,target,target_4,G,/+/The convicted criminal * watched at the railway station * was * following the boy./,Did someone watch the criminal?,Y,,0,17,at,38,2,5,12,2,2,5,337,1563004098451,Y,2148,1
221,1,11,target,target_4,G,/+/The convicted criminal * watched at the railway station * was * following the boy./,Did someone watch the criminal?,Y,,0,17,watched,39,2,4,12,2,1,5,775,1563004099226,Y,2148,1
221,1,11,target,target_4,G,/+/The convicted criminal * watched at the railway station * was * following the boy./,Did someone watch the criminal?,Y,,0,17,at,40,2,5,12,2,2,5,177,1563004099403,Y,2148,1
221,1,11,target,target_4,G,/+/The convicted criminal * watched at the railway station * was * following the boy./,Did someone watch the criminal?,Y,,0,17,the,41,2,6,12,2,3,5,176,1563004099579,Y,2148,1
221,1,11,target,target_4,G,/+/The convicted criminal * watched at the railway station * was * following the boy./,Did someone watch the criminal?,Y,,0,17,railway,42,2,7,12,2,4,5,152,1563004099731,Y,2148,1
221,1,11,target,target_4,G,/+/The convicted criminal * watched at the railway station * was * following the boy./,Did someone watch the criminal?,Y,,0,17,station,43,2,8,12,2,5,5,160,1563004099891,Y,2148,1
221,1,11,target,target_4,G,/+/The convicted criminal * watched at the railway station * was * following the boy./,Did someone watch the criminal?,Y,,0,17,was,44,2,9,12,3,1,1,167,1563004100058,Y,2148,1
221,1,11,target,target_4,G,/+/The convicted criminal * watched at the railway station * was * following the boy./,Did someone watch the criminal?,Y,,0,17,following,45,2,10,12,4,1,3,177,1563004100235,Y,2148,1
221,1,11,target,target_4,G,/+/The convicted criminal * watched at the railway station * was * following the boy./,Did someone watch the criminal?,Y,,0,17,the,46,2,11,12,4,2,3,536,1563004100771,Y,2148,1
221,1,11,target,target_4,G,/+/The convicted criminal * watched at the railway station * was * following the boy./,Did someone watch the criminal?,Y,,0,17,boy.,47,2,12,12,4,3,3,367,1563004101138,Y,2148,1
221,1,12,filler,filler_35,,/+/The company building was completed successfully in the third quarter./,Was the company building completed?,Y,,0,18,+,1,1,1,1,1,1,1,663,1563004104451,N,7539,0
221,1,12,filler,filler_35,,/+/The company building was completed successfully in the third quarter./,Was the company building completed?,Y,,0,18,The,2,2,1,10,1,1,10,488,1563004104939,N,7539,0
221,1,12,filler,filler_35,,/+/The company building was completed successfully in the third quarter./,Was the company building completed?,Y,,0,18,company,3,2,2,10,1,2,10,600,1563004105539,N,7539,0
221,1,12,filler,filler_35,,/+/The company building was completed successfully in the third quarter./,Was the company building completed?,Y,,0,18,building,4,2,3,10,1,3,10,936,1563004106475,N,7539,0
221,1,12,filler,filler_35,,/+/The company building was completed successfully in the third quarter./,Was the company building completed?,Y,,0,18,was,5,2,4,10,1,4,10,904,1563004107379,N,7539,0
221,1,12,filler,filler_35,,/+/The company building was completed successfully in the third quarter./,Was the company building completed?,Y,,0,18,completed,6,2,5,10,1,5,10,1016,1563004108395,N,7539,0
221,1,12,filler,filler_35,,/+/The company building was completed successfully in the third quarter./,Was the company building completed?,Y,,0,18,successfully,7,2,6,10,1,6,10,1592,1563004109987,N,7539,0
221,1,12,filler,filler_35,,/+/The company building was completed successfully in the third quarter./,Was the company building completed?,Y,,0,18,in,8,2,7,10,1,7,10,432,1563004110419,N,7539,0
221,1,12,filler,filler_35,,/+/The company building was completed successfully in the third quarter./,Was the company building completed?,Y,,0,18,the,9,2,8,10,1,8,10,416,1563004110835,N,7539,0
221,1,12,filler,filler_35,,/+/The company building was completed successfully in the third quarter./,Was the company building completed?,Y,,0,18,third,10,2,9,10,1,9,10,551,1563004111386,N,7539,0
221,1,12,filler,filler_35,,/+/The company building was completed successfully in the third quarter./,Was the company building completed?,Y,,0,18,quarter.,11,2,10,10,1,10,10,809,1563004112195,N,7539,0
221,1,12,filler,filler_35,,/+/The company building was completed successfully in the third quarter./,Was the company building completed?,Y,,0,18,third,12,2,9,10,1,9,10,499,1563004112694,N,7539,0
221,1,12,filler,filler_35,,/+/The company building was completed successfully in the third quarter./,Was the company building completed?,Y,,0,18,the,13,2,8,10,1,8,10,32,1563004112727,N,7539,0
221,1,12,filler,filler_35,,/+/The company building was completed successfully in the third quarter./,Was the company building completed?,Y,,0,18,in,14,2,7,10,1,7,10,33,1563004112760,N,7539,0
221,1,12,filler,filler_35,,/+/The company building was completed successfully in the third quarter./,Was the company building completed?,Y,,0,18,successfully,15,2,6,10,1,6,10,33,1563004112793,N,7539,0
221,1,12,filler,filler_35,,/+/The company building was completed successfully in the third quarter./,Was the company building completed?,Y,,0,18,completed,16,2,5,10,1,5,10,33,1563004112826,N,7539,0
221,1,12,filler,filler_35,,/+/The company building was completed successfully in the third quarter./,Was the company building completed?,Y,,0,18,was,17,2,4,10,1,4,10,32,1563004112859,N,7539,0
221,1,12,filler,filler_35,,/+/The company building was completed successfully in the third quarter./,Was the company building completed?,Y,,0,18,building,18,2,3,10,1,3,10,33,1563004112892,N,7539,0
221,1,12,filler,filler_35,,/+/The company building was completed successfully in the third quarter./,Was the company building completed?,Y,,0,18,company,19,2,2,10,1,2,10,33,1563004112925,N,7539,0
221,1,12,filler,filler_35,,/+/The company building was completed successfully in the third quarter./,Was the company building completed?,Y,,0,18,The,20,2,1,10,1,1,10,453,1563004113378,N,7539,0
221,1,12,filler,filler_35,,/+/The company building was completed successfully in the third quarter./,Was the company building completed?,Y,,0,18,company,21,2,2,10,1,2,10,481,1563004113859,N,7539,0
221,1,12,filler,filler_35,,/+/The company building was completed successfully in the third quarter./,Was the company building completed?,Y,,0,18,building,22,2,3,10,1,3,10,768,1563004114627,N,7539,0
221,1,12,filler,filler_35,,/+/The company building was completed successfully in the third quarter./,Was the company building completed?,Y,,0,18,was,23,2,4,10,1,4,10,424,1563004115051,N,7539,0
221,1,12,filler,filler_35,,/+/The company building was completed successfully in the third quarter./,Was the company building completed?,Y,,0,18,completed,24,2,5,10,1,5,10,520,1563004115571,N,7539,0
221,1,12,filler,filler_35,,/+/The company building was completed successfully in the third quarter./,Was the company building completed?,Y,,0,18,successfully,25,2,6,10,1,6,10,608,1563004116179,N,7539,0
221,1,12,filler,filler_35,,/+/The company building was completed successfully in the third quarter./,Was the company building completed?,Y,,0,18,in,26,2,7,10,1,7,10,520,1563004116699,N,7539,0
221,1,12,filler,filler_35,,/+/The company building was completed successfully in the third quarter./,Was the company building completed?,Y,,0,18,the,27,2,8,10,1,8,10,472,1563004117171,N,7539,0
221,1,12,filler,filler_35,,/+/The company building was completed successfully in the third quarter./,Was the company building completed?,Y,,0,18,third,28,2,9,10,1,9,10,768,1563004117939,N,7539,0
221,1,12,filler,filler_35,,/+/The company building was completed successfully in the third quarter./,Was the company building completed?,Y,,0,18,quarter.,29,2,10,10,1,10,10,2216,1563004120155,N,7539,0
221,1,13,target,target_8,C,/+/The older kids * who were * showed all the dances * felt * amazed at the party./,Did the older kids show the dances?,N,,0,19,+,1,1,1,1,1,1,1,10077,1563004138276,N,4253,1
221,1,13,target,target_8,C,/+/The older kids * who were * showed all the dances * felt * amazed at the party./,Did the older kids show the dances?,N,,0,19,The,2,2,1,14,1,1,3,407,1563004138683,N,4253,1
221,1,13,target,target_8,C,/+/The older kids * who were * showed all the dances * felt * amazed at the party./,Did the older kids show the dances?,N,,0,19,older,3,2,2,14,1,2,3,920,1563004139603,N,4253,1
221,1,13,target,target_8,C,/+/The older kids * who were * showed all the dances * felt * amazed at the party./,Did the older kids show the dances?,N,,0,19,kids,4,2,3,14,1,3,3,761,1563004140364,N,4253,1
221,1,13,target,target_8,C,/+/The older kids * who were * showed all the dances * felt * amazed at the party./,Did the older kids show the dances?,N,,0,19,who,5,2,4,14,2,1,2,447,1563004140811,N,4253,1
221,1,13,target,target_8,C,/+/The older kids * who were * showed all the dances * felt * amazed at the party./,Did the older kids show the dances?,N,,0,19,were,6,2,5,14,2,2,2,432,1563004141243,N,4253,1
221,1,13,target,target_8,C,/+/The older kids * who were * showed all the dances * felt * amazed at the party./,Did the older kids show the dances?,N,,0,19,showed,7,2,6,14,3,1,4,551,1563004141795,N,4253,1
221,1,13,target,target_8,C,/+/The older kids * who were * showed all the dances * felt * amazed at the party./,Did the older kids show the dances?,N,,0,19,all,8,2,7,14,3,2,4,536,1563004142331,N,4253,1
221,1,13,target,target_8,C,/+/The older kids * who were * showed all the dances * felt * amazed at the party./,Did the older kids show the dances?,N,,0,19,the,9,2,8,14,3,3,4,439,1563004142771,N,4253,1
221,1,13,target,target_8,C,/+/The older kids * who were * showed all the dances * felt * amazed at the party./,Did the older kids show the dances?,N,,0,19,dances,10,2,9,14,3,4,4,721,1563004143492,N,4253,1
221,1,13,target,target_8,C,/+/The older kids * who were * showed all the dances * felt * amazed at the party./,Did the older kids show the dances?,N,,0,19,felt,11,2,10,14,4,1,1,471,1563004143963,N,4253,1
221,1,13,target,target_8,C,/+/The older kids * who were * showed all the dances * felt * amazed at the party./,Did the older kids show the dances?,N,,0,19,amazed,12,2,11,14,5,1,4,567,1563004144531,N,4253,1
221,1,13,target,target_8,C,/+/The older kids * who were * showed all the dances * felt * amazed at the party./,Did the older kids show the dances?,N,,0,19,at,13,2,12,14,5,2,4,399,1563004144931,N,4253,1
221,1,13,target,target_8,C,/+/The older kids * who were * showed all the dances * felt * amazed at the party./,Did the older kids show the dances?,N,,0,19,the,14,2,13,14,5,3,4,367,1563004145299,N,4253,1
221,1,13,target,target_8,C,/+/The older kids * who were * showed all the dances * felt * amazed at the party./,Did the older kids show the dances?,N,,0,19,party.,15,2,14,14,5,4,4,879,1563004146179,N,4253,1
221,1,13,target,target_8,C,/+/The older kids * who were * showed all the dances * felt * amazed at the party./,Did the older kids show the dances?,N,,0,19,the,16,2,13,14,5,3,4,499,1563004146679,N,4253,1
221,1,13,target,target_8,C,/+/The older kids * who were * showed all the dances * felt * amazed at the party./,Did the older kids show the dances?,N,,0,19,at,17,2,12,14,5,2,4,33,1563004146712,N,4253,1
221,1,13,target,target_8,C,/+/The older kids * who were * showed all the dances * felt * amazed at the party./,Did the older kids show the dances?,N,,0,19,amazed,18,2,11,14,5,1,4,32,1563004146744,N,4253,1
221,1,13,target,target_8,C,/+/The older kids * who were * showed all the dances * felt * amazed at the party./,Did the older kids show the dances?,N,,0,19,felt,19,2,10,14,4,1,1,33,1563004146777,N,4253,1
221,1,13,target,target_8,C,/+/The older kids * who were * showed all the dances * felt * amazed at the party./,Did the older kids show the dances?,N,,0,19,dances,20,2,9,14,3,4,4,33,1563004146810,N,4253,1
221,1,13,target,target_8,C,/+/The older kids * who were * showed all the dances * felt * amazed at the party./,Did the older kids show the dances?,N,,0,19,the,21,2,8,14,3,3,4,33,1563004146843,N,4253,1
221,1,13,target,target_8,C,/+/The older kids * who were * showed all the dances * felt * amazed at the party./,Did the older kids show the dances?,N,,0,19,all,22,2,7,14,3,2,4,33,1563004146876,N,4253,1
221,1,13,target,target_8,C,/+/The older kids * who were * showed all the dances * felt * amazed at the party./,Did the older kids show the dances?,N,,0,19,showed,23,2,6,14,3,1,4,34,1563004146910,N,4253,1
221,1,13,target,target_8,C,/+/The older kids * who were * showed all the dances * felt * amazed at the party./,Did the older kids show the dances?,N,,0,19,were,24,2,5,14,2,2,2,445,1563004147355,N,4253,1
221,1,13,target,target_8,C,/+/The older kids * who were * showed all the dances * felt * amazed at the party./,Did the older kids show the dances?,N,,0,19,showed,25,2,6,14,3,1,4,583,1563004147939,N,4253,1
221,1,13,target,target_8,C,/+/The older kids * who were * showed all the dances * felt * amazed at the party./,Did the older kids show the dances?,N,,0,19,all,26,2,7,14,3,2,4,383,1563004148323,N,4253,1
221,1,13,target,target_8,C,/+/The older kids * who were * showed all the dances * felt * amazed at the party./,Did the older kids show the dances?,N,,0,19,the,27,2,8,14,3,3,4,392,1563004148716,N,4253,1
221,1,13,target,target_8,C,/+/The older kids * who were * showed all the dances * felt * amazed at the party./,Did the older kids show the dances?,N,,0,19,all,28,2,7,14,3,2,4,175,1563004148891,N,4253,1
221,1,13,target,target_8,C,/+/The older kids * who were * showed all the dances * felt * amazed at the party./,Did the older kids show the dances?,N,,0,19,showed,29,2,6,14,3,1,4,160,1563004149051,N,4253,1
221,1,13,target,target_8,C,/+/The older kids * who were * showed all the dances * felt * amazed at the party./,Did the older kids show the dances?,N,,0,19,were,30,2,5,14,2,2,2,471,1563004149523,N,4253,1
221,1,13,target,target_8,C,/+/The older kids * who were * showed all the dances * felt * amazed at the party./,Did the older kids show the dances?,N,,0,19,showed,31,2,6,14,3,1,4,499,1563004150023,N,4253,1
221,1,13,target,target_8,C,/+/The older kids * who were * showed all the dances * felt * amazed at the party./,Did the older kids show the dances?,N,,0,19,all,32,2,7,14,3,2,4,33,1563004150056,N,4253,1
221,1,13,target,target_8,C,/+/The older kids * who were * showed all the dances * felt * amazed at the party./,Did the older kids show the dances?,N,,0,19,the,33,2,8,14,3,3,4,33,1563004150089,N,4253,1
221,1,13,target,target_8,C,/+/The older kids * who were * showed all the dances * felt * amazed at the party./,Did the older kids show the dances?,N,,0,19,dances,34,2,9,14,3,4,4,147,1563004150236,N,4253,1
221,1,13,target,target_8,C,/+/The older kids * who were * showed all the dances * felt * amazed at the party./,Did the older kids show the dances?,N,,0,19,felt,35,2,10,14,4,1,1,167,1563004150403,N,4253,1
221,1,13,target,target_8,C,/+/The older kids * who were * showed all the dances * felt * amazed at the party./,Did the older kids show the dances?,N,,0,19,amazed,36,2,11,14,5,1,4,216,1563004150620,N,4253,1
221,1,13,target,target_8,C,/+/The older kids * who were * showed all the dances * felt * amazed at the party./,Did the older kids show the dances?,N,,0,19,at,37,2,12,14,5,2,4,495,1563004151115,N,4253,1
221,1,13,target,target_8,C,/+/The older kids * who were * showed all the dances * felt * amazed at the party./,Did the older kids show the dances?,N,,0,19,the,38,2,13,14,5,3,4,335,1563004151451,N,4253,1
221,1,13,target,target_8,C,/+/The older kids * who were * showed all the dances * felt * amazed at the party./,Did the older kids show the dances?,N,,0,19,party.,39,2,14,14,5,4,4,527,1563004151979,N,4253,1
221,1,14,filler,filler_27,,/+/The letter that came this morning was from a friendly classmate./,Did the letter arrive this morning?,Y,,0,20,+,1,1,1,1,1,1,1,3309,1563004160042,Y,3739,1
221,1,14,filler,filler_27,,/+/The letter that came this morning was from a friendly classmate./,Did the letter arrive this morning?,Y,,0,20,The,2,2,1,11,1,1,11,392,1563004160435,Y,3739,1
221,1,14,filler,filler_27,,/+/The letter that came this morning was from a friendly classmate./,Did the letter arrive this morning?,Y,,0,20,letter,3,2,2,11,1,2,11,608,1563004161043,Y,3739,1
221,1,14,filler,filler_27,,/+/The letter that came this morning was from a friendly classmate./,Did the letter arrive this morning?,Y,,0,20,that,4,2,3,11,1,3,11,496,1563004161539,Y,3739,1
221,1,14,filler,filler_27,,/+/The letter that came this morning was from a friendly classmate./,Did the letter arrive this morning?,Y,,0,20,came,5,2,4,11,1,4,11,728,1563004162267,Y,3739,1
221,1,14,filler,filler_27,,/+/The letter that came this morning was from a friendly classmate./,Did the letter arrive this morning?,Y,,0,20,this,6,2,5,11,1,5,11,408,1563004162675,Y,3739,1
221,1,14,filler,filler_27,,/+/The letter that came this morning was from a friendly classmate./,Did the letter arrive this morning?,Y,,0,20,morning,7,2,6,11,1,6,11,679,1563004163355,Y,3739,1
221,1,14,filler,filler_27,,/+/The letter that came this morning was from a friendly classmate./,Did the letter arrive this morning?,Y,,0,20,was,8,2,7,11,1,7,11,504,1563004163859,Y,3739,1
221,1,14,filler,filler_27,,/+/The letter that came this morning was from a friendly classmate./,Did the letter arrive this morning?,Y,,0,20,from,9,2,8,11,1,8,11,952,1563004164811,Y,3739,1
221,1,14,filler,filler_27,,/+/The letter that came this morning was from a friendly classmate./,Did the letter arrive this morning?,Y,,0,20,a,10,2,9,11,1,9,11,432,1563004165243,Y,3739,1
221,1,14,filler,filler_27,,/+/The letter that came this morning was from a friendly classmate./,Did the letter arrive this morning?,Y,,0,20,friendly,11,2,10,11,1,10,11,831,1563004166074,Y,3739,1
221,1,14,filler,filler_27,,/+/The letter that came this morning was from a friendly classmate./,Did the letter arrive this morning?,Y,,0,20,classmate.,12,2,11,11,1,11,11,1193,1563004167267,Y,3739,1
