dat_Subject,list,display_order,type,id,con,fab_stimulus,fab_question,fab_key,fab_instruction,fab_feedback,dat_Trial,dat_Window,dat_WindowSequence,dat_LoopNumber,dat_LoopPosition,dat_LoopSum,dat_AreaNumber,dat_AreaPosition,dat_AreaSum,dat_ReactionTime,dat_Time,dat_Ans,dat_AnsReactionTime,dat_Accuracy
209,1,p1,practice,practice_1,,/+/The patient listened to the doctor's advice after he felt hopeless./,Did the patient follow the doctor?,Y,ins.jpg,1,1,+,1,1,1,1,1,1,1,4596,1562923220030,Y,7835,1
209,1,p1,practice,practice_1,,/+/The patient listened to the doctor's advice after he felt hopeless./,Did the patient follow the doctor?,Y,ins.jpg,1,1,The,2,2,1,11,1,1,11,4371,1562923224401,Y,7835,1
209,1,p1,practice,practice_1,,/+/The patient listened to the doctor's advice after he felt hopeless./,Did the patient follow the doctor?,Y,ins.jpg,1,1,patient,3,2,2,11,1,2,11,2020,1562923226421,Y,7835,1
209,1,p1,practice,practice_1,,/+/The patient listened to the doctor's advice after he felt hopeless./,Did the patient follow the doctor?,Y,ins.jpg,1,1,listened,4,2,3,11,1,3,11,1224,1562923227645,Y,7835,1
209,1,p1,practice,practice_1,,/+/The patient listened to the doctor's advice after he felt hopeless./,Did the patient follow the doctor?,Y,ins.jpg,1,1,to,5,2,4,11,1,4,11,751,1562923228396,Y,7835,1
209,1,p1,practice,practice_1,,/+/The patient listened to the doctor's advice after he felt hopeless./,Did the patient follow the doctor?,Y,ins.jpg,1,1,the,6,2,5,11,1,5,11,597,1562923228993,Y,7835,1
209,1,p1,practice,practice_1,,/+/The patient listened to the doctor's advice after he felt hopeless./,Did the patient follow the doctor?,Y,ins.jpg,1,1,doctor's,7,2,6,11,1,6,11,647,1562923229640,Y,7835,1
209,1,p1,practice,practice_1,,/+/The patient listened to the doctor's advice after he felt hopeless./,Did the patient follow the doctor?,Y,ins.jpg,1,1,advice,8,2,7,11,1,7,11,730,1562923230370,Y,7835,1
209,1,p1,practice,practice_1,,/+/The patient listened to the doctor's advice after he felt hopeless./,Did the patient follow the doctor?,Y,ins.jpg,1,1,after,9,2,8,11,1,8,11,593,1562923230963,Y,7835,1
209,1,p1,practice,practice_1,,/+/The patient listened to the doctor's advice after he felt hopeless./,Did the patient follow the doctor?,Y,ins.jpg,1,1,he,10,2,9,11,1,9,11,507,1562923231470,Y,7835,1
209,1,p1,practice,practice_1,,/+/The patient listened to the doctor's advice after he felt hopeless./,Did the patient follow the doctor?,Y,ins.jpg,1,1,felt,11,2,10,11,1,10,11,596,1562923232066,Y,7835,1
209,1,p1,practice,practice_1,,/+/The patient listened to the doctor's advice after he felt hopeless./,Did the patient follow the doctor?,Y,ins.jpg,1,1,hopeless.,12,2,11,11,1,11,11,1021,1562923233087,Y,7835,1
209,1,p2,practice,practice_2,,/+/The visitors knew little about how the painting was created./,Did the visitors know how the painting was created?,N,,1,2,+,1,1,1,1,1,1,1,4166,1562923245608,N,2919,1
209,1,p2,practice,practice_2,,/+/The visitors knew little about how the painting was created./,Did the visitors know how the painting was created?,N,,1,2,The,2,2,1,10,1,1,10,1303,1562923246911,N,2919,1
209,1,p2,practice,practice_2,,/+/The visitors knew little about how the painting was created./,Did the visitors know how the painting was created?,N,,1,2,visitors,3,2,2,10,1,2,10,4376,1562923251287,N,2919,1
209,1,p2,practice,practice_2,,/+/The visitors knew little about how the painting was created./,Did the visitors know how the painting was created?,N,,1,2,knew,4,2,3,10,1,3,10,4156,1562923255443,N,2919,1
209,1,p2,practice,practice_2,,/+/The visitors knew little about how the painting was created./,Did the visitors know how the painting was created?,N,,1,2,little,5,2,4,10,1,4,10,1974,1562923257417,N,2919,1
209,1,p2,practice,practice_2,,/+/The visitors knew little about how the painting was created./,Did the visitors know how the painting was created?,N,,1,2,about,6,2,5,10,1,5,10,566,1562923257983,N,2919,1
209,1,p2,practice,practice_2,,/+/The visitors knew little about how the painting was created./,Did the visitors know how the painting was created?,N,,1,2,little,7,2,4,10,1,4,10,459,1562923258442,N,2919,1
209,1,p2,practice,practice_2,,/+/The visitors knew little about how the painting was created./,Did the visitors know how the painting was created?,N,,1,2,knew,8,2,3,10,1,3,10,452,1562923258894,N,2919,1
209,1,p2,practice,practice_2,,/+/The visitors knew little about how the painting was created./,Did the visitors know how the painting was created?,N,,1,2,visitors,9,2,2,10,1,2,10,1138,1562923260032,N,2919,1
209,1,p2,practice,practice_2,,/+/The visitors knew little about how the painting was created./,Did the visitors know how the painting was created?,N,,1,2,knew,10,2,3,10,1,3,10,510,1562923260542,N,2919,1
209,1,p2,practice,practice_2,,/+/The visitors knew little about how the painting was created./,Did the visitors know how the painting was created?,N,,1,2,little,11,2,4,10,1,4,10,473,1562923261015,N,2919,1
209,1,p2,practice,practice_2,,/+/The visitors knew little about how the painting was created./,Did the visitors know how the painting was created?,N,,1,2,about,12,2,5,10,1,5,10,342,1562923261357,N,2919,1
209,1,p2,practice,practice_2,,/+/The visitors knew little about how the painting was created./,Did the visitors know how the painting was created?,N,,1,2,how,13,2,6,10,1,6,10,396,1562923261753,N,2919,1
209,1,p2,practice,practice_2,,/+/The visitors knew little about how the painting was created./,Did the visitors know how the painting was created?,N,,1,2,the,14,2,7,10,1,7,10,386,1562923262139,N,2919,1
209,1,p2,practice,practice_2,,/+/The visitors knew little about how the painting was created./,Did the visitors know how the painting was created?,N,,1,2,painting,15,2,8,10,1,8,10,461,1562923262600,N,2919,1
209,1,p2,practice,practice_2,,/+/The visitors knew little about how the painting was created./,Did the visitors know how the painting was created?,N,,1,2,was,16,2,9,10,1,9,10,764,1562923263364,N,2919,1
209,1,p2,practice,practice_2,,/+/The visitors knew little about how the painting was created./,Did the visitors know how the painting was created?,N,,1,2,painting,17,2,8,10,1,8,10,394,1562923263758,N,2919,1
209,1,p2,practice,practice_2,,/+/The visitors knew little about how the painting was created./,Did the visitors know how the painting was created?,N,,1,2,was,18,2,9,10,1,9,10,306,1562923264064,N,2919,1
209,1,p2,practice,practice_2,,/+/The visitors knew little about how the painting was created./,Did the visitors know how the painting was created?,N,,1,2,created.,19,2,10,10,1,10,10,473,1562923264537,N,2919,1
209,1,p3,practice,practice_3,,/+/The old lady lived further away from the city center./,Did the old lady live in the city center?,N,,1,3,+,1,1,1,1,1,1,1,1456,1562923269427,N,3809,1
209,1,p3,practice,practice_3,,/+/The old lady lived further away from the city center./,Did the old lady live in the city center?,N,,1,3,The,2,2,1,10,1,1,10,564,1562923269991,N,3809,1
209,1,p3,practice,practice_3,,/+/The old lady lived further away from the city center./,Did the old lady live in the city center?,N,,1,3,old,3,2,2,10,1,2,10,489,1562923270480,N,3809,1
209,1,p3,practice,practice_3,,/+/The old lady lived further away from the city center./,Did the old lady live in the city center?,N,,1,3,lady,4,2,3,10,1,3,10,578,1562923271058,N,3809,1
209,1,p3,practice,practice_3,,/+/The old lady lived further away from the city center./,Did the old lady live in the city center?,N,,1,3,lived,5,2,4,10,1,4,10,2394,1562923273452,N,3809,1
209,1,p3,practice,practice_3,,/+/The old lady lived further away from the city center./,Did the old lady live in the city center?,N,,1,3,further,6,2,5,10,1,5,10,876,1562923274328,N,3809,1
209,1,p3,practice,practice_3,,/+/The old lady lived further away from the city center./,Did the old lady live in the city center?,N,,1,3,away,7,2,6,10,1,6,10,618,1562923274946,N,3809,1
209,1,p3,practice,practice_3,,/+/The old lady lived further away from the city center./,Did the old lady live in the city center?,N,,1,3,from,8,2,7,10,1,7,10,509,1562923275455,N,3809,1
209,1,p3,practice,practice_3,,/+/The old lady lived further away from the city center./,Did the old lady live in the city center?,N,,1,3,the,9,2,8,10,1,8,10,502,1562923275957,N,3809,1
209,1,p3,practice,practice_3,,/+/The old lady lived further away from the city center./,Did the old lady live in the city center?,N,,1,3,city,10,2,9,10,1,9,10,1078,1562923277035,N,3809,1
209,1,p3,practice,practice_3,,/+/The old lady lived further away from the city center./,Did the old lady live in the city center?,N,,1,3,center.,11,2,10,10,1,10,10,1507,1562923278542,N,3809,1
209,1,p4,practice,practice_4,,/+/The maid looked at the hostess with a nervous smile./,Did the maid feel nervous? ,Y,,1,4,+,1,1,1,1,1,1,1,20640,1562923303511,Y,3153,1
209,1,p4,practice,practice_4,,/+/The maid looked at the hostess with a nervous smile./,Did the maid feel nervous? ,Y,,1,4,The,2,2,1,10,1,1,10,2155,1562923305666,Y,3153,1
209,1,p4,practice,practice_4,,/+/The maid looked at the hostess with a nervous smile./,Did the maid feel nervous? ,Y,,1,4,maid,3,2,2,10,1,2,10,1406,1562923307072,Y,3153,1
209,1,p4,practice,practice_4,,/+/The maid looked at the hostess with a nervous smile./,Did the maid feel nervous? ,Y,,1,4,looked,4,2,3,10,1,3,10,699,1562923307771,Y,3153,1
209,1,p4,practice,practice_4,,/+/The maid looked at the hostess with a nervous smile./,Did the maid feel nervous? ,Y,,1,4,at,5,2,4,10,1,4,10,530,1562923308301,Y,3153,1
209,1,p4,practice,practice_4,,/+/The maid looked at the hostess with a nervous smile./,Did the maid feel nervous? ,Y,,1,4,the,6,2,5,10,1,5,10,440,1562923308741,Y,3153,1
209,1,p4,practice,practice_4,,/+/The maid looked at the hostess with a nervous smile./,Did the maid feel nervous? ,Y,,1,4,hostess,7,2,6,10,1,6,10,2338,1562923311079,Y,3153,1
209,1,p4,practice,practice_4,,/+/The maid looked at the hostess with a nervous smile./,Did the maid feel nervous? ,Y,,1,4,with,8,2,7,10,1,7,10,466,1562923311545,Y,3153,1
209,1,p4,practice,practice_4,,/+/The maid looked at the hostess with a nervous smile./,Did the maid feel nervous? ,Y,,1,4,a,9,2,8,10,1,8,10,439,1562923311984,Y,3153,1
209,1,p4,practice,practice_4,,/+/The maid looked at the hostess with a nervous smile./,Did the maid feel nervous? ,Y,,1,4,nervous,10,2,9,10,1,9,10,822,1562923312806,Y,3153,1
209,1,p4,practice,practice_4,,/+/The maid looked at the hostess with a nervous smile./,Did the maid feel nervous? ,Y,,1,4,smile.,11,2,10,10,1,10,10,2535,1562923315341,Y,3153,1
209,1,p5,practice,practice_5,,/+/The young lady * sent a red rose * became * really embarrassed./,Did the lady send a red rose?,N,,1,5,+,1,1,1,1,1,1,1,1626,1562923320630,Y,5275,0
209,1,p5,practice,practice_5,,/+/The young lady * sent a red rose * became * really embarrassed./,Did the lady send a red rose?,N,,1,5,The,2,2,1,10,1,1,3,842,1562923321472,Y,5275,0
209,1,p5,practice,practice_5,,/+/The young lady * sent a red rose * became * really embarrassed./,Did the lady send a red rose?,N,,1,5,young,3,2,2,10,1,2,3,1131,1562923322603,Y,5275,0
209,1,p5,practice,practice_5,,/+/The young lady * sent a red rose * became * really embarrassed./,Did the lady send a red rose?,N,,1,5,lady,4,2,3,10,1,3,3,495,1562923323098,Y,5275,0
209,1,p5,practice,practice_5,,/+/The young lady * sent a red rose * became * really embarrassed./,Did the lady send a red rose?,N,,1,5,sent,5,2,4,10,2,1,4,1297,1562923324395,Y,5275,0
209,1,p5,practice,practice_5,,/+/The young lady * sent a red rose * became * really embarrassed./,Did the lady send a red rose?,N,,1,5,a,6,2,5,10,2,2,4,396,1562923324791,Y,5275,0
209,1,p5,practice,practice_5,,/+/The young lady * sent a red rose * became * really embarrassed./,Did the lady send a red rose?,N,,1,5,red,7,2,6,10,2,3,4,635,1562923325426,Y,5275,0
209,1,p5,practice,practice_5,,/+/The young lady * sent a red rose * became * really embarrassed./,Did the lady send a red rose?,N,,1,5,rose,8,2,7,10,2,4,4,2008,1562923327434,Y,5275,0
209,1,p5,practice,practice_5,,/+/The young lady * sent a red rose * became * really embarrassed./,Did the lady send a red rose?,N,,1,5,became,9,2,8,10,3,1,1,1441,1562923328875,Y,5275,0
209,1,p5,practice,practice_5,,/+/The young lady * sent a red rose * became * really embarrassed./,Did the lady send a red rose?,N,,1,5,really,10,2,9,10,4,1,2,689,1562923329564,Y,5275,0
209,1,p5,practice,practice_5,,/+/The young lady * sent a red rose * became * really embarrassed./,Did the lady send a red rose?,N,,1,5,embarrassed.,11,2,10,10,4,2,2,1636,1562923331200,Y,5275,0
209,1,p5,practice,practice_5,,/+/The young lady * sent a red rose * became * really embarrassed./,Did the lady send a red rose?,N,,1,5,really,12,2,9,10,4,1,2,374,1562923331574,Y,5275,0
209,1,p5,practice,practice_5,,/+/The young lady * sent a red rose * became * really embarrassed./,Did the lady send a red rose?,N,,1,5,became,13,2,8,10,3,1,1,432,1562923332006,Y,5275,0
209,1,p5,practice,practice_5,,/+/The young lady * sent a red rose * became * really embarrassed./,Did the lady send a red rose?,N,,1,5,rose,14,2,7,10,2,4,4,510,1562923332516,Y,5275,0
209,1,p5,practice,practice_5,,/+/The young lady * sent a red rose * became * really embarrassed./,Did the lady send a red rose?,N,,1,5,red,15,2,6,10,2,3,4,31,1562923332547,Y,5275,0
209,1,p5,practice,practice_5,,/+/The young lady * sent a red rose * became * really embarrassed./,Did the lady send a red rose?,N,,1,5,a,16,2,5,10,2,2,4,24,1562923332572,Y,5275,0
209,1,p5,practice,practice_5,,/+/The young lady * sent a red rose * became * really embarrassed./,Did the lady send a red rose?,N,,1,5,sent,17,2,4,10,2,1,4,321,1562923332894,Y,5275,0
209,1,p5,practice,practice_5,,/+/The young lady * sent a red rose * became * really embarrassed./,Did the lady send a red rose?,N,,1,5,lady,18,2,3,10,1,3,3,306,1562923333200,Y,5275,0
209,1,p5,practice,practice_5,,/+/The young lady * sent a red rose * became * really embarrassed./,Did the lady send a red rose?,N,,1,5,young,19,2,2,10,1,2,3,298,1562923333498,Y,5275,0
209,1,p5,practice,practice_5,,/+/The young lady * sent a red rose * became * really embarrassed./,Did the lady send a red rose?,N,,1,5,The,20,2,1,10,1,1,3,441,1562923333939,Y,5275,0
209,1,p5,practice,practice_5,,/+/The young lady * sent a red rose * became * really embarrassed./,Did the lady send a red rose?,N,,1,5,young,21,2,2,10,1,2,3,279,1562923334218,Y,5275,0
209,1,p5,practice,practice_5,,/+/The young lady * sent a red rose * became * really embarrassed./,Did the lady send a red rose?,N,,1,5,lady,22,2,3,10,1,3,3,581,1562923334799,Y,5275,0
209,1,p5,practice,practice_5,,/+/The young lady * sent a red rose * became * really embarrassed./,Did the lady send a red rose?,N,,1,5,sent,23,2,4,10,2,1,4,537,1562923335336,Y,5275,0
209,1,p5,practice,practice_5,,/+/The young lady * sent a red rose * became * really embarrassed./,Did the lady send a red rose?,N,,1,5,a,24,2,5,10,2,2,4,472,1562923335808,Y,5275,0
209,1,p5,practice,practice_5,,/+/The young lady * sent a red rose * became * really embarrassed./,Did the lady send a red rose?,N,,1,5,red,25,2,6,10,2,3,4,484,1562923336292,Y,5275,0
209,1,p5,practice,practice_5,,/+/The young lady * sent a red rose * became * really embarrassed./,Did the lady send a red rose?,N,,1,5,rose,26,2,7,10,2,4,4,438,1562923336730,Y,5275,0
209,1,p5,practice,practice_5,,/+/The young lady * sent a red rose * became * really embarrassed./,Did the lady send a red rose?,N,,1,5,became,27,2,8,10,3,1,1,1337,1562923338067,Y,5275,0
209,1,p5,practice,practice_5,,/+/The young lady * sent a red rose * became * really embarrassed./,Did the lady send a red rose?,N,,1,5,rose,28,2,7,10,2,4,4,1758,1562923339825,Y,5275,0
209,1,p5,practice,practice_5,,/+/The young lady * sent a red rose * became * really embarrassed./,Did the lady send a red rose?,N,,1,5,became,29,2,8,10,3,1,1,272,1562923340097,Y,5275,0
209,1,p5,practice,practice_5,,/+/The young lady * sent a red rose * became * really embarrassed./,Did the lady send a red rose?,N,,1,5,really,30,2,9,10,4,1,2,345,1562923340442,Y,5275,0
209,1,p5,practice,practice_5,,/+/The young lady * sent a red rose * became * really embarrassed./,Did the lady send a red rose?,N,,1,5,embarrassed.,31,2,10,10,4,2,2,897,1562923341339,Y,5275,0
209,1,p6,practice,practice_6,,/+/The busy workers * who were * offered a delicious pizza * felt * not so hungry./,Did someone offer the workers a pizza?,Y,,1,6,+,1,1,1,1,1,1,1,1037,1562923396837,Y,4323,1
209,1,p6,practice,practice_6,,/+/The busy workers * who were * offered a delicious pizza * felt * not so hungry./,Did someone offer the workers a pizza?,Y,,1,6,The,2,2,1,13,1,1,3,1113,1562923397950,Y,4323,1
209,1,p6,practice,practice_6,,/+/The busy workers * who were * offered a delicious pizza * felt * not so hungry./,Did someone offer the workers a pizza?,Y,,1,6,busy,3,2,2,13,1,2,3,1042,1562923398992,Y,4323,1
209,1,p6,practice,practice_6,,/+/The busy workers * who were * offered a delicious pizza * felt * not so hungry./,Did someone offer the workers a pizza?,Y,,1,6,workers,4,2,3,13,1,3,3,1675,1562923400667,Y,4323,1
209,1,p6,practice,practice_6,,/+/The busy workers * who were * offered a delicious pizza * felt * not so hungry./,Did someone offer the workers a pizza?,Y,,1,6,who,5,2,4,13,2,1,2,501,1562923401168,Y,4323,1
209,1,p6,practice,practice_6,,/+/The busy workers * who were * offered a delicious pizza * felt * not so hungry./,Did someone offer the workers a pizza?,Y,,1,6,were,6,2,5,13,2,2,2,1047,1562923402215,Y,4323,1
209,1,p6,practice,practice_6,,/+/The busy workers * who were * offered a delicious pizza * felt * not so hungry./,Did someone offer the workers a pizza?,Y,,1,6,offered,7,2,6,13,3,1,4,1238,1562923403453,Y,4323,1
209,1,p6,practice,practice_6,,/+/The busy workers * who were * offered a delicious pizza * felt * not so hungry./,Did someone offer the workers a pizza?,Y,,1,6,a,8,2,7,13,3,2,4,407,1562923403860,Y,4323,1
209,1,p6,practice,practice_6,,/+/The busy workers * who were * offered a delicious pizza * felt * not so hungry./,Did someone offer the workers a pizza?,Y,,1,6,delicious,9,2,8,13,3,3,4,1182,1562923405042,Y,4323,1
209,1,p6,practice,practice_6,,/+/The busy workers * who were * offered a delicious pizza * felt * not so hungry./,Did someone offer the workers a pizza?,Y,,1,6,pizza,10,2,9,13,3,4,4,594,1562923405636,Y,4323,1
209,1,p6,practice,practice_6,,/+/The busy workers * who were * offered a delicious pizza * felt * not so hungry./,Did someone offer the workers a pizza?,Y,,1,6,felt,11,2,10,13,4,1,1,459,1562923406095,Y,4323,1
209,1,p6,practice,practice_6,,/+/The busy workers * who were * offered a delicious pizza * felt * not so hungry./,Did someone offer the workers a pizza?,Y,,1,6,not,12,2,11,13,5,1,3,437,1562923406532,Y,4323,1
209,1,p6,practice,practice_6,,/+/The busy workers * who were * offered a delicious pizza * felt * not so hungry./,Did someone offer the workers a pizza?,Y,,1,6,so,13,2,12,13,5,2,3,392,1562923406924,Y,4323,1
209,1,p6,practice,practice_6,,/+/The busy workers * who were * offered a delicious pizza * felt * not so hungry./,Did someone offer the workers a pizza?,Y,,1,6,hungry.,14,2,13,13,5,3,3,1549,1562923408473,Y,4323,1
209,1,p6,practice,practice_6,,/+/The busy workers * who were * offered a delicious pizza * felt * not so hungry./,Did someone offer the workers a pizza?,Y,,1,6,so,15,2,12,13,5,2,3,509,1562923408982,Y,4323,1
209,1,p6,practice,practice_6,,/+/The busy workers * who were * offered a delicious pizza * felt * not so hungry./,Did someone offer the workers a pizza?,Y,,1,6,not,16,2,11,13,5,1,3,31,1562923409013,Y,4323,1
209,1,p6,practice,practice_6,,/+/The busy workers * who were * offered a delicious pizza * felt * not so hungry./,Did someone offer the workers a pizza?,Y,,1,6,felt,17,2,10,13,4,1,1,26,1562923409039,Y,4323,1
209,1,p6,practice,practice_6,,/+/The busy workers * who were * offered a delicious pizza * felt * not so hungry./,Did someone offer the workers a pizza?,Y,,1,6,pizza,18,2,9,13,3,4,4,39,1562923409079,Y,4323,1
209,1,p6,practice,practice_6,,/+/The busy workers * who were * offered a delicious pizza * felt * not so hungry./,Did someone offer the workers a pizza?,Y,,1,6,delicious,19,2,8,13,3,3,4,31,1562923409110,Y,4323,1
209,1,p6,practice,practice_6,,/+/The busy workers * who were * offered a delicious pizza * felt * not so hungry./,Did someone offer the workers a pizza?,Y,,1,6,a,20,2,7,13,3,2,4,27,1562923409138,Y,4323,1
209,1,p6,practice,practice_6,,/+/The busy workers * who were * offered a delicious pizza * felt * not so hungry./,Did someone offer the workers a pizza?,Y,,1,6,offered,21,2,6,13,3,1,4,41,1562923409180,Y,4323,1
209,1,p6,practice,practice_6,,/+/The busy workers * who were * offered a delicious pizza * felt * not so hungry./,Did someone offer the workers a pizza?,Y,,1,6,were,22,2,5,13,2,2,2,32,1562923409212,Y,4323,1
209,1,p6,practice,practice_6,,/+/The busy workers * who were * offered a delicious pizza * felt * not so hungry./,Did someone offer the workers a pizza?,Y,,1,6,who,23,2,4,13,2,1,2,25,1562923409237,Y,4323,1
209,1,p6,practice,practice_6,,/+/The busy workers * who were * offered a delicious pizza * felt * not so hungry./,Did someone offer the workers a pizza?,Y,,1,6,workers,24,2,3,13,1,3,3,42,1562923409280,Y,4323,1
209,1,p6,practice,practice_6,,/+/The busy workers * who were * offered a delicious pizza * felt * not so hungry./,Did someone offer the workers a pizza?,Y,,1,6,busy,25,2,2,13,1,2,3,31,1562923409311,Y,4323,1
209,1,p6,practice,practice_6,,/+/The busy workers * who were * offered a delicious pizza * felt * not so hungry./,Did someone offer the workers a pizza?,Y,,1,6,The,26,2,1,13,1,1,3,662,1562923409973,Y,4323,1
209,1,p6,practice,practice_6,,/+/The busy workers * who were * offered a delicious pizza * felt * not so hungry./,Did someone offer the workers a pizza?,Y,,1,6,busy,27,2,2,13,1,2,3,417,1562923410390,Y,4323,1
209,1,p6,practice,practice_6,,/+/The busy workers * who were * offered a delicious pizza * felt * not so hungry./,Did someone offer the workers a pizza?,Y,,1,6,workers,28,2,3,13,1,3,3,418,1562923410808,Y,4323,1
209,1,p6,practice,practice_6,,/+/The busy workers * who were * offered a delicious pizza * felt * not so hungry./,Did someone offer the workers a pizza?,Y,,1,6,who,29,2,4,13,2,1,2,355,1562923411163,Y,4323,1
209,1,p6,practice,practice_6,,/+/The busy workers * who were * offered a delicious pizza * felt * not so hungry./,Did someone offer the workers a pizza?,Y,,1,6,were,30,2,5,13,2,2,2,507,1562923411670,Y,4323,1
209,1,p6,practice,practice_6,,/+/The busy workers * who were * offered a delicious pizza * felt * not so hungry./,Did someone offer the workers a pizza?,Y,,1,6,offered,31,2,6,13,3,1,4,32,1562923411702,Y,4323,1
209,1,p6,practice,practice_6,,/+/The busy workers * who were * offered a delicious pizza * felt * not so hungry./,Did someone offer the workers a pizza?,Y,,1,6,a,32,2,7,13,3,2,4,29,1562923411731,Y,4323,1
209,1,p6,practice,practice_6,,/+/The busy workers * who were * offered a delicious pizza * felt * not so hungry./,Did someone offer the workers a pizza?,Y,,1,6,delicious,33,2,8,13,3,3,4,32,1562923411763,Y,4323,1
209,1,p6,practice,practice_6,,/+/The busy workers * who were * offered a delicious pizza * felt * not so hungry./,Did someone offer the workers a pizza?,Y,,1,6,pizza,34,2,9,13,3,4,4,37,1562923411801,Y,4323,1
209,1,p6,practice,practice_6,,/+/The busy workers * who were * offered a delicious pizza * felt * not so hungry./,Did someone offer the workers a pizza?,Y,,1,6,felt,35,2,10,13,4,1,1,33,1562923411834,Y,4323,1
209,1,p6,practice,practice_6,,/+/The busy workers * who were * offered a delicious pizza * felt * not so hungry./,Did someone offer the workers a pizza?,Y,,1,6,not,36,2,11,13,5,1,3,28,1562923411862,Y,4323,1
209,1,p6,practice,practice_6,,/+/The busy workers * who were * offered a delicious pizza * felt * not so hungry./,Did someone offer the workers a pizza?,Y,,1,6,so,37,2,12,13,5,2,3,39,1562923411901,Y,4323,1
209,1,p6,practice,practice_6,,/+/The busy workers * who were * offered a delicious pizza * felt * not so hungry./,Did someone offer the workers a pizza?,Y,,1,6,hungry.,38,2,13,13,5,3,3,31,1562923411932,Y,4323,1
209,1,1,filler,filler_6,,/+/The girl sang very well through learning experiences from her tutor./,Did the girl's tutor do a lot of help? ,Y,练习结束，现在开始正式实验。,0,7,+,1,1,1,1,1,1,1,4776,1562923472709,Y,4230,1
209,1,1,filler,filler_6,,/+/The girl sang very well through learning experiences from her tutor./,Did the girl's tutor do a lot of help? ,Y,练习结束，现在开始正式实验。,0,7,The,2,2,1,11,1,1,11,878,1562923473587,Y,4230,1
209,1,1,filler,filler_6,,/+/The girl sang very well through learning experiences from her tutor./,Did the girl's tutor do a lot of help? ,Y,练习结束，现在开始正式实验。,0,7,girl,3,2,2,11,1,2,11,597,1562923474184,Y,4230,1
209,1,1,filler,filler_6,,/+/The girl sang very well through learning experiences from her tutor./,Did the girl's tutor do a lot of help? ,Y,练习结束，现在开始正式实验。,0,7,sang,4,2,3,11,1,3,11,632,1562923474816,Y,4230,1
209,1,1,filler,filler_6,,/+/The girl sang very well through learning experiences from her tutor./,Did the girl's tutor do a lot of help? ,Y,练习结束，现在开始正式实验。,0,7,very,5,2,4,11,1,4,11,1617,1562923476433,Y,4230,1
209,1,1,filler,filler_6,,/+/The girl sang very well through learning experiences from her tutor./,Did the girl's tutor do a lot of help? ,Y,练习结束，现在开始正式实验。,0,7,sang,6,2,3,11,1,3,11,1464,1562923477897,Y,4230,1
209,1,1,filler,filler_6,,/+/The girl sang very well through learning experiences from her tutor./,Did the girl's tutor do a lot of help? ,Y,练习结束，现在开始正式实验。,0,7,very,7,2,4,11,1,4,11,346,1562923478243,Y,4230,1
209,1,1,filler,filler_6,,/+/The girl sang very well through learning experiences from her tutor./,Did the girl's tutor do a lot of help? ,Y,练习结束，现在开始正式实验。,0,7,well,8,2,5,11,1,5,11,381,1562923478624,Y,4230,1
209,1,1,filler,filler_6,,/+/The girl sang very well through learning experiences from her tutor./,Did the girl's tutor do a lot of help? ,Y,练习结束，现在开始正式实验。,0,7,through,9,2,6,11,1,6,11,604,1562923479228,Y,4230,1
209,1,1,filler,filler_6,,/+/The girl sang very well through learning experiences from her tutor./,Did the girl's tutor do a lot of help? ,Y,练习结束，现在开始正式实验。,0,7,learning,10,2,7,11,1,7,11,1926,1562923481154,Y,4230,1
209,1,1,filler,filler_6,,/+/The girl sang very well through learning experiences from her tutor./,Did the girl's tutor do a lot of help? ,Y,练习结束，现在开始正式实验。,0,7,through,11,2,6,11,1,6,11,641,1562923481795,Y,4230,1
209,1,1,filler,filler_6,,/+/The girl sang very well through learning experiences from her tutor./,Did the girl's tutor do a lot of help? ,Y,练习结束，现在开始正式实验。,0,7,learning,12,2,7,11,1,7,11,667,1562923482462,Y,4230,1
209,1,1,filler,filler_6,,/+/The girl sang very well through learning experiences from her tutor./,Did the girl's tutor do a lot of help? ,Y,练习结束，现在开始正式实验。,0,7,experiences,13,2,8,11,1,8,11,732,1562923483194,Y,4230,1
209,1,1,filler,filler_6,,/+/The girl sang very well through learning experiences from her tutor./,Did the girl's tutor do a lot of help? ,Y,练习结束，现在开始正式实验。,0,7,from,14,2,9,11,1,9,11,548,1562923483742,Y,4230,1
209,1,1,filler,filler_6,,/+/The girl sang very well through learning experiences from her tutor./,Did the girl's tutor do a lot of help? ,Y,练习结束，现在开始正式实验。,0,7,her,15,2,10,11,1,10,11,454,1562923484196,Y,4230,1
209,1,1,filler,filler_6,,/+/The girl sang very well through learning experiences from her tutor./,Did the girl's tutor do a lot of help? ,Y,练习结束，现在开始正式实验。,0,7,tutor.,16,2,11,11,1,11,11,389,1562923484585,Y,4230,1
209,1,2,filler,filler_7,,/+/Some important papers which lay in the office were stolen last night./,Were the papers still safe?,N,,0,8,+,1,1,1,1,1,1,1,1479,1562923490821,N,3450,1
209,1,2,filler,filler_7,,/+/Some important papers which lay in the office were stolen last night./,Were the papers still safe?,N,,0,8,Some,2,2,1,12,1,1,12,909,1562923491730,N,3450,1
209,1,2,filler,filler_7,,/+/Some important papers which lay in the office were stolen last night./,Were the papers still safe?,N,,0,8,important,3,2,2,12,1,2,12,700,1562923492430,N,3450,1
209,1,2,filler,filler_7,,/+/Some important papers which lay in the office were stolen last night./,Were the papers still safe?,N,,0,8,papers,4,2,3,12,1,3,12,1109,1562923493555,N,3450,1
209,1,2,filler,filler_7,,/+/Some important papers which lay in the office were stolen last night./,Were the papers still safe?,N,,0,8,which,5,2,4,12,1,4,12,1833,1562923495388,N,3450,1
209,1,2,filler,filler_7,,/+/Some important papers which lay in the office were stolen last night./,Were the papers still safe?,N,,0,8,papers,6,2,3,12,1,3,12,200,1562923495588,N,3450,1
209,1,2,filler,filler_7,,/+/Some important papers which lay in the office were stolen last night./,Were the papers still safe?,N,,0,8,important,7,2,2,12,1,2,12,2149,1562923497737,N,3450,1
209,1,2,filler,filler_7,,/+/Some important papers which lay in the office were stolen last night./,Were the papers still safe?,N,,0,8,papers,8,2,3,12,1,3,12,345,1562923498082,N,3450,1
209,1,2,filler,filler_7,,/+/Some important papers which lay in the office were stolen last night./,Were the papers still safe?,N,,0,8,which,9,2,4,12,1,4,12,304,1562923498386,N,3450,1
209,1,2,filler,filler_7,,/+/Some important papers which lay in the office were stolen last night./,Were the papers still safe?,N,,0,8,lay,10,2,5,12,1,5,12,409,1562923498795,N,3450,1
209,1,2,filler,filler_7,,/+/Some important papers which lay in the office were stolen last night./,Were the papers still safe?,N,,0,8,in,11,2,6,12,1,6,12,495,1562923499290,N,3450,1
209,1,2,filler,filler_7,,/+/Some important papers which lay in the office were stolen last night./,Were the papers still safe?,N,,0,8,the,12,2,7,12,1,7,12,439,1562923499729,N,3450,1
209,1,2,filler,filler_7,,/+/Some important papers which lay in the office were stolen last night./,Were the papers still safe?,N,,0,8,office,13,2,8,12,1,8,12,1151,1562923500880,N,3450,1
209,1,2,filler,filler_7,,/+/Some important papers which lay in the office were stolen last night./,Were the papers still safe?,N,,0,8,were,14,2,9,12,1,9,12,795,1562923501675,N,3450,1
209,1,2,filler,filler_7,,/+/Some important papers which lay in the office were stolen last night./,Were the papers still safe?,N,,0,8,stolen,15,2,10,12,1,10,12,1642,1562923503317,N,3450,1
209,1,2,filler,filler_7,,/+/Some important papers which lay in the office were stolen last night./,Were the papers still safe?,N,,0,8,last,16,2,11,12,1,11,12,642,1562923503959,N,3450,1
209,1,2,filler,filler_7,,/+/Some important papers which lay in the office were stolen last night./,Were the papers still safe?,N,,0,8,night.,17,2,12,12,1,12,12,2038,1562923505997,N,3450,1
209,1,2,filler,filler_7,,/+/Some important papers which lay in the office were stolen last night./,Were the papers still safe?,N,,0,8,last,18,2,11,12,1,11,12,506,1562923506503,N,3450,1
209,1,2,filler,filler_7,,/+/Some important papers which lay in the office were stolen last night./,Were the papers still safe?,N,,0,8,stolen,19,2,10,12,1,10,12,31,1562923506534,N,3450,1
209,1,2,filler,filler_7,,/+/Some important papers which lay in the office were stolen last night./,Were the papers still safe?,N,,0,8,were,20,2,9,12,1,9,12,29,1562923506563,N,3450,1
209,1,2,filler,filler_7,,/+/Some important papers which lay in the office were stolen last night./,Were the papers still safe?,N,,0,8,office,21,2,8,12,1,8,12,38,1562923506602,N,3450,1
209,1,2,filler,filler_7,,/+/Some important papers which lay in the office were stolen last night./,Were the papers still safe?,N,,0,8,the,22,2,7,12,1,7,12,31,1562923506633,N,3450,1
209,1,2,filler,filler_7,,/+/Some important papers which lay in the office were stolen last night./,Were the papers still safe?,N,,0,8,in,23,2,6,12,1,6,12,29,1562923506662,N,3450,1
209,1,2,filler,filler_7,,/+/Some important papers which lay in the office were stolen last night./,Were the papers still safe?,N,,0,8,lay,24,2,5,12,1,5,12,32,1562923506695,N,3450,1
209,1,2,filler,filler_7,,/+/Some important papers which lay in the office were stolen last night./,Were the papers still safe?,N,,0,8,which,25,2,4,12,1,4,12,414,1562923507110,N,3450,1
209,1,2,filler,filler_7,,/+/Some important papers which lay in the office were stolen last night./,Were the papers still safe?,N,,0,8,papers,26,2,3,12,1,3,12,513,1562923507623,N,3450,1
209,1,2,filler,filler_7,,/+/Some important papers which lay in the office were stolen last night./,Were the papers still safe?,N,,0,8,important,27,2,2,12,1,2,12,563,1562923508186,N,3450,1
209,1,2,filler,filler_7,,/+/Some important papers which lay in the office were stolen last night./,Were the papers still safe?,N,,0,8,Some,28,2,1,12,1,1,12,411,1562923508597,N,3450,1
209,1,2,filler,filler_7,,/+/Some important papers which lay in the office were stolen last night./,Were the papers still safe?,N,,0,8,important,29,2,2,12,1,2,12,277,1562923508874,N,3450,1
209,1,2,filler,filler_7,,/+/Some important papers which lay in the office were stolen last night./,Were the papers still safe?,N,,0,8,papers,30,2,3,12,1,3,12,252,1562923509126,N,3450,1
209,1,2,filler,filler_7,,/+/Some important papers which lay in the office were stolen last night./,Were the papers still safe?,N,,0,8,which,31,2,4,12,1,4,12,205,1562923509331,N,3450,1
209,1,2,filler,filler_7,,/+/Some important papers which lay in the office were stolen last night./,Were the papers still safe?,N,,0,8,lay,32,2,5,12,1,5,12,217,1562923509548,N,3450,1
209,1,2,filler,filler_7,,/+/Some important papers which lay in the office were stolen last night./,Were the papers still safe?,N,,0,8,in,33,2,6,12,1,6,12,403,1562923509951,N,3450,1
209,1,2,filler,filler_7,,/+/Some important papers which lay in the office were stolen last night./,Were the papers still safe?,N,,0,8,the,34,2,7,12,1,7,12,245,1562923510196,N,3450,1
209,1,2,filler,filler_7,,/+/Some important papers which lay in the office were stolen last night./,Were the papers still safe?,N,,0,8,office,35,2,8,12,1,8,12,282,1562923510478,N,3450,1
209,1,2,filler,filler_7,,/+/Some important papers which lay in the office were stolen last night./,Were the papers still safe?,N,,0,8,were,36,2,9,12,1,9,12,673,1562923511151,N,3450,1
209,1,2,filler,filler_7,,/+/Some important papers which lay in the office were stolen last night./,Were the papers still safe?,N,,0,8,stolen,37,2,10,12,1,10,12,685,1562923511836,N,3450,1
209,1,2,filler,filler_7,,/+/Some important papers which lay in the office were stolen last night./,Were the papers still safe?,N,,0,8,last,38,2,11,12,1,11,12,355,1562923512191,N,3450,1
209,1,2,filler,filler_7,,/+/Some important papers which lay in the office were stolen last night./,Were the papers still safe?,N,,0,8,night.,39,2,12,12,1,12,12,570,1562923512761,N,3450,1
209,1,3,target,target_1,G,/+/The cotton farmers * warned about the bad floods * had * no other crops./,Did the farmers warn about the floods?,N,,0,9,+,1,1,1,1,1,1,1,1382,1562923518115,N,10313,1
209,1,3,target,target_1,G,/+/The cotton farmers * warned about the bad floods * had * no other crops./,Did the farmers warn about the floods?,N,,0,9,The,2,2,1,12,1,1,3,574,1562923518689,N,10313,1
209,1,3,target,target_1,G,/+/The cotton farmers * warned about the bad floods * had * no other crops./,Did the farmers warn about the floods?,N,,0,9,cotton,3,2,2,12,1,2,3,1846,1562923520535,N,10313,1
209,1,3,target,target_1,G,/+/The cotton farmers * warned about the bad floods * had * no other crops./,Did the farmers warn about the floods?,N,,0,9,farmers,4,2,3,12,1,3,3,1324,1562923521859,N,10313,1
209,1,3,target,target_1,G,/+/The cotton farmers * warned about the bad floods * had * no other crops./,Did the farmers warn about the floods?,N,,0,9,warned,5,2,4,12,2,1,5,820,1562923522679,N,10313,1
209,1,3,target,target_1,G,/+/The cotton farmers * warned about the bad floods * had * no other crops./,Did the farmers warn about the floods?,N,,0,9,about,6,2,5,12,2,2,5,2239,1562923524918,N,10313,1
209,1,3,target,target_1,G,/+/The cotton farmers * warned about the bad floods * had * no other crops./,Did the farmers warn about the floods?,N,,0,9,the,7,2,6,12,2,3,5,567,1562923525485,N,10313,1
209,1,3,target,target_1,G,/+/The cotton farmers * warned about the bad floods * had * no other crops./,Did the farmers warn about the floods?,N,,0,9,bad,8,2,7,12,2,4,5,1598,1562923527083,N,10313,1
209,1,3,target,target_1,G,/+/The cotton farmers * warned about the bad floods * had * no other crops./,Did the farmers warn about the floods?,N,,0,9,floods,9,2,8,12,2,5,5,838,1562923527921,N,10313,1
209,1,3,target,target_1,G,/+/The cotton farmers * warned about the bad floods * had * no other crops./,Did the farmers warn about the floods?,N,,0,9,had,10,2,9,12,3,1,1,569,1562923528490,N,10313,1
209,1,3,target,target_1,G,/+/The cotton farmers * warned about the bad floods * had * no other crops./,Did the farmers warn about the floods?,N,,0,9,no,11,2,10,12,4,1,3,661,1562923529151,N,10313,1
209,1,3,target,target_1,G,/+/The cotton farmers * warned about the bad floods * had * no other crops./,Did the farmers warn about the floods?,N,,0,9,other,12,2,11,12,4,2,3,560,1562923529711,N,10313,1
209,1,3,target,target_1,G,/+/The cotton farmers * warned about the bad floods * had * no other crops./,Did the farmers warn about the floods?,N,,0,9,crops.,13,2,12,12,4,3,3,4560,1562923534271,N,10313,1
209,1,3,target,target_1,G,/+/The cotton farmers * warned about the bad floods * had * no other crops./,Did the farmers warn about the floods?,N,,0,9,other,14,2,11,12,4,2,3,519,1562923534790,N,10313,1
209,1,3,target,target_1,G,/+/The cotton farmers * warned about the bad floods * had * no other crops./,Did the farmers warn about the floods?,N,,0,9,no,15,2,10,12,4,1,3,502,1562923535292,N,10313,1
209,1,3,target,target_1,G,/+/The cotton farmers * warned about the bad floods * had * no other crops./,Did the farmers warn about the floods?,N,,0,9,other,16,2,11,12,4,2,3,221,1562923535513,N,10313,1
209,1,3,target,target_1,G,/+/The cotton farmers * warned about the bad floods * had * no other crops./,Did the farmers warn about the floods?,N,,0,9,crops.,17,2,12,12,4,3,3,341,1562923535854,N,10313,1
209,1,4,filler,filler_10,,/+/There was a big hole in the road which blocked the traffic./,Was there a big hole in the road?,Y,,0,10,+,1,1,1,1,1,1,1,1069,1562923547743,Y,4480,1
209,1,4,filler,filler_10,,/+/There was a big hole in the road which blocked the traffic./,Was there a big hole in the road?,Y,,0,10,There,2,2,1,12,1,1,12,913,1562923548656,Y,4480,1
209,1,4,filler,filler_10,,/+/There was a big hole in the road which blocked the traffic./,Was there a big hole in the road?,Y,,0,10,was,3,2,2,12,1,2,12,575,1562923549231,Y,4480,1
209,1,4,filler,filler_10,,/+/There was a big hole in the road which blocked the traffic./,Was there a big hole in the road?,Y,,0,10,a,4,2,3,12,1,3,12,412,1562923549643,Y,4480,1
209,1,4,filler,filler_10,,/+/There was a big hole in the road which blocked the traffic./,Was there a big hole in the road?,Y,,0,10,big,5,2,4,12,1,4,12,447,1562923550090,Y,4480,1
209,1,4,filler,filler_10,,/+/There was a big hole in the road which blocked the traffic./,Was there a big hole in the road?,Y,,0,10,hole,6,2,5,12,1,5,12,375,1562923550465,Y,4480,1
209,1,4,filler,filler_10,,/+/There was a big hole in the road which blocked the traffic./,Was there a big hole in the road?,Y,,0,10,in,7,2,6,12,1,6,12,443,1562923550908,Y,4480,1
209,1,4,filler,filler_10,,/+/There was a big hole in the road which blocked the traffic./,Was there a big hole in the road?,Y,,0,10,the,8,2,7,12,1,7,12,439,1562923551363,Y,4480,1
209,1,4,filler,filler_10,,/+/There was a big hole in the road which blocked the traffic./,Was there a big hole in the road?,Y,,0,10,road,9,2,8,12,1,8,12,401,1562923551764,Y,4480,1
209,1,4,filler,filler_10,,/+/There was a big hole in the road which blocked the traffic./,Was there a big hole in the road?,Y,,0,10,which,10,2,9,12,1,9,12,556,1562923552320,Y,4480,1
209,1,4,filler,filler_10,,/+/There was a big hole in the road which blocked the traffic./,Was there a big hole in the road?,Y,,0,10,blocked,11,2,10,12,1,10,12,725,1562923553045,Y,4480,1
209,1,4,filler,filler_10,,/+/There was a big hole in the road which blocked the traffic./,Was there a big hole in the road?,Y,,0,10,the,12,2,11,12,1,11,12,545,1562923553590,Y,4480,1
209,1,4,filler,filler_10,,/+/There was a big hole in the road which blocked the traffic./,Was there a big hole in the road?,Y,,0,10,traffic.,13,2,12,12,1,12,12,676,1562923554266,Y,4480,1
209,1,5,target,target_2,C,/+/The sunburned boys * who were * served the hot dogs * got * a stomach ache./,Did the boys serve the hot dogs?,N,,0,11,+,1,1,1,1,1,1,1,820,1562923560068,Y,4589,0
209,1,5,target,target_2,C,/+/The sunburned boys * who were * served the hot dogs * got * a stomach ache./,Did the boys serve the hot dogs?,N,,0,11,The,2,2,1,13,1,1,3,397,1562923560465,Y,4589,0
209,1,5,target,target_2,C,/+/The sunburned boys * who were * served the hot dogs * got * a stomach ache./,Did the boys serve the hot dogs?,N,,0,11,sunburned,3,2,2,13,1,2,3,2865,1562923563330,Y,4589,0
209,1,5,target,target_2,C,/+/The sunburned boys * who were * served the hot dogs * got * a stomach ache./,Did the boys serve the hot dogs?,N,,0,11,boys,4,2,3,13,1,3,3,1250,1562923564580,Y,4589,0
209,1,5,target,target_2,C,/+/The sunburned boys * who were * served the hot dogs * got * a stomach ache./,Did the boys serve the hot dogs?,N,,0,11,sunburned,5,2,2,13,1,2,3,346,1562923564926,Y,4589,0
209,1,5,target,target_2,C,/+/The sunburned boys * who were * served the hot dogs * got * a stomach ache./,Did the boys serve the hot dogs?,N,,0,11,boys,6,2,3,13,1,3,3,368,1562923565294,Y,4589,0
209,1,5,target,target_2,C,/+/The sunburned boys * who were * served the hot dogs * got * a stomach ache./,Did the boys serve the hot dogs?,N,,0,11,who,7,2,4,13,2,1,2,446,1562923565740,Y,4589,0
209,1,5,target,target_2,C,/+/The sunburned boys * who were * served the hot dogs * got * a stomach ache./,Did the boys serve the hot dogs?,N,,0,11,were,8,2,5,13,2,2,2,704,1562923566444,Y,4589,0
209,1,5,target,target_2,C,/+/The sunburned boys * who were * served the hot dogs * got * a stomach ache./,Did the boys serve the hot dogs?,N,,0,11,served,9,2,6,13,3,1,4,1272,1562923567716,Y,4589,0
209,1,5,target,target_2,C,/+/The sunburned boys * who were * served the hot dogs * got * a stomach ache./,Did the boys serve the hot dogs?,N,,0,11,the,10,2,7,13,3,2,4,865,1562923568581,Y,4589,0
209,1,5,target,target_2,C,/+/The sunburned boys * who were * served the hot dogs * got * a stomach ache./,Did the boys serve the hot dogs?,N,,0,11,hot,11,2,8,13,3,3,4,587,1562923569168,Y,4589,0
209,1,5,target,target_2,C,/+/The sunburned boys * who were * served the hot dogs * got * a stomach ache./,Did the boys serve the hot dogs?,N,,0,11,dogs,12,2,9,13,3,4,4,1738,1562923570906,Y,4589,0
209,1,5,target,target_2,C,/+/The sunburned boys * who were * served the hot dogs * got * a stomach ache./,Did the boys serve the hot dogs?,N,,0,11,got,13,2,10,13,4,1,1,443,1562923571349,Y,4589,0
209,1,5,target,target_2,C,/+/The sunburned boys * who were * served the hot dogs * got * a stomach ache./,Did the boys serve the hot dogs?,N,,0,11,a,14,2,11,13,5,1,3,501,1562923571850,Y,4589,0
209,1,5,target,target_2,C,/+/The sunburned boys * who were * served the hot dogs * got * a stomach ache./,Did the boys serve the hot dogs?,N,,0,11,stomach,15,2,12,13,5,2,3,1016,1562923572866,Y,4589,0
209,1,5,target,target_2,C,/+/The sunburned boys * who were * served the hot dogs * got * a stomach ache./,Did the boys serve the hot dogs?,N,,0,11,ache.,16,2,13,13,5,3,3,1141,1562923574007,Y,4589,0
209,1,5,target,target_2,C,/+/The sunburned boys * who were * served the hot dogs * got * a stomach ache./,Did the boys serve the hot dogs?,N,,0,11,stomach,17,2,12,13,5,2,3,245,1562923574252,Y,4589,0
209,1,5,target,target_2,C,/+/The sunburned boys * who were * served the hot dogs * got * a stomach ache./,Did the boys serve the hot dogs?,N,,0,11,a,18,2,11,13,5,1,3,282,1562923574534,Y,4589,0
209,1,5,target,target_2,C,/+/The sunburned boys * who were * served the hot dogs * got * a stomach ache./,Did the boys serve the hot dogs?,N,,0,11,got,19,2,10,13,4,1,1,251,1562923574785,Y,4589,0
209,1,5,target,target_2,C,/+/The sunburned boys * who were * served the hot dogs * got * a stomach ache./,Did the boys serve the hot dogs?,N,,0,11,dogs,20,2,9,13,3,4,4,174,1562923574959,Y,4589,0
209,1,5,target,target_2,C,/+/The sunburned boys * who were * served the hot dogs * got * a stomach ache./,Did the boys serve the hot dogs?,N,,0,11,hot,21,2,8,13,3,3,4,417,1562923575376,Y,4589,0
209,1,5,target,target_2,C,/+/The sunburned boys * who were * served the hot dogs * got * a stomach ache./,Did the boys serve the hot dogs?,N,,0,11,the,22,2,7,13,3,2,4,511,1562923575887,Y,4589,0
209,1,5,target,target_2,C,/+/The sunburned boys * who were * served the hot dogs * got * a stomach ache./,Did the boys serve the hot dogs?,N,,0,11,served,23,2,6,13,3,1,4,31,1562923575918,Y,4589,0
209,1,5,target,target_2,C,/+/The sunburned boys * who were * served the hot dogs * got * a stomach ache./,Did the boys serve the hot dogs?,N,,0,11,were,24,2,5,13,2,2,2,25,1562923575943,Y,4589,0
209,1,5,target,target_2,C,/+/The sunburned boys * who were * served the hot dogs * got * a stomach ache./,Did the boys serve the hot dogs?,N,,0,11,who,25,2,4,13,2,1,2,40,1562923575984,Y,4589,0
209,1,5,target,target_2,C,/+/The sunburned boys * who were * served the hot dogs * got * a stomach ache./,Did the boys serve the hot dogs?,N,,0,11,boys,26,2,3,13,1,3,3,473,1562923576457,Y,4589,0
209,1,5,target,target_2,C,/+/The sunburned boys * who were * served the hot dogs * got * a stomach ache./,Did the boys serve the hot dogs?,N,,0,11,sunburned,27,2,2,13,1,2,3,592,1562923577049,Y,4589,0
209,1,5,target,target_2,C,/+/The sunburned boys * who were * served the hot dogs * got * a stomach ache./,Did the boys serve the hot dogs?,N,,0,11,The,28,2,1,13,1,1,3,788,1562923577837,Y,4589,0
209,1,5,target,target_2,C,/+/The sunburned boys * who were * served the hot dogs * got * a stomach ache./,Did the boys serve the hot dogs?,N,,0,11,sunburned,29,2,2,13,1,2,3,862,1562923578699,Y,4589,0
209,1,5,target,target_2,C,/+/The sunburned boys * who were * served the hot dogs * got * a stomach ache./,Did the boys serve the hot dogs?,N,,0,11,boys,30,2,3,13,1,3,3,636,1562923579335,Y,4589,0
209,1,5,target,target_2,C,/+/The sunburned boys * who were * served the hot dogs * got * a stomach ache./,Did the boys serve the hot dogs?,N,,0,11,sunburned,31,2,2,13,1,2,3,1367,1562923580702,Y,4589,0
209,1,5,target,target_2,C,/+/The sunburned boys * who were * served the hot dogs * got * a stomach ache./,Did the boys serve the hot dogs?,N,,0,11,boys,32,2,3,13,1,3,3,402,1562923581104,Y,4589,0
209,1,5,target,target_2,C,/+/The sunburned boys * who were * served the hot dogs * got * a stomach ache./,Did the boys serve the hot dogs?,N,,0,11,who,33,2,4,13,2,1,2,479,1562923581583,Y,4589,0
209,1,5,target,target_2,C,/+/The sunburned boys * who were * served the hot dogs * got * a stomach ache./,Did the boys serve the hot dogs?,N,,0,11,were,34,2,5,13,2,2,2,421,1562923582004,Y,4589,0
209,1,5,target,target_2,C,/+/The sunburned boys * who were * served the hot dogs * got * a stomach ache./,Did the boys serve the hot dogs?,N,,0,11,served,35,2,6,13,3,1,4,688,1562923582692,Y,4589,0
209,1,5,target,target_2,C,/+/The sunburned boys * who were * served the hot dogs * got * a stomach ache./,Did the boys serve the hot dogs?,N,,0,11,the,36,2,7,13,3,2,4,462,1562923583154,Y,4589,0
209,1,5,target,target_2,C,/+/The sunburned boys * who were * served the hot dogs * got * a stomach ache./,Did the boys serve the hot dogs?,N,,0,11,hot,37,2,8,13,3,3,4,1092,1562923584246,Y,4589,0
209,1,5,target,target_2,C,/+/The sunburned boys * who were * served the hot dogs * got * a stomach ache./,Did the boys serve the hot dogs?,N,,0,11,dogs,38,2,9,13,3,4,4,522,1562923584768,Y,4589,0
209,1,5,target,target_2,C,/+/The sunburned boys * who were * served the hot dogs * got * a stomach ache./,Did the boys serve the hot dogs?,N,,0,11,got,39,2,10,13,4,1,1,660,1562923585428,Y,4589,0
209,1,5,target,target_2,C,/+/The sunburned boys * who were * served the hot dogs * got * a stomach ache./,Did the boys serve the hot dogs?,N,,0,11,a,40,2,11,13,5,1,3,423,1562923585851,Y,4589,0
209,1,5,target,target_2,C,/+/The sunburned boys * who were * served the hot dogs * got * a stomach ache./,Did the boys serve the hot dogs?,N,,0,11,stomach,41,2,12,13,5,2,3,412,1562923586263,Y,4589,0
209,1,5,target,target_2,C,/+/The sunburned boys * who were * served the hot dogs * got * a stomach ache./,Did the boys serve the hot dogs?,N,,0,11,ache.,42,2,13,13,5,3,3,886,1562923587149,Y,4589,0
209,1,6,filler,filler_17,,/+/The students who failed the exam were asked to take it again./,Should all students take the exam again?,N,,0,12,+,1,1,1,1,1,1,1,3392,1562923595640,N,4824,1
209,1,6,filler,filler_17,,/+/The students who failed the exam were asked to take it again./,Should all students take the exam again?,N,,0,12,The,2,2,1,12,1,1,12,441,1562923596081,N,4824,1
209,1,6,filler,filler_17,,/+/The students who failed the exam were asked to take it again./,Should all students take the exam again?,N,,0,12,students,3,2,2,12,1,2,12,1465,1562923597546,N,4824,1
209,1,6,filler,filler_17,,/+/The students who failed the exam were asked to take it again./,Should all students take the exam again?,N,,0,12,who,4,2,3,12,1,3,12,892,1562923598438,N,4824,1
209,1,6,filler,filler_17,,/+/The students who failed the exam were asked to take it again./,Should all students take the exam again?,N,,0,12,failed,5,2,4,12,1,4,12,844,1562923599282,N,4824,1
209,1,6,filler,filler_17,,/+/The students who failed the exam were asked to take it again./,Should all students take the exam again?,N,,0,12,the,6,2,5,12,1,5,12,456,1562923599738,N,4824,1
209,1,6,filler,filler_17,,/+/The students who failed the exam were asked to take it again./,Should all students take the exam again?,N,,0,12,exam,7,2,6,12,1,6,12,514,1562923600252,N,4824,1
209,1,6,filler,filler_17,,/+/The students who failed the exam were asked to take it again./,Should all students take the exam again?,N,,0,12,were,8,2,7,12,1,7,12,344,1562923600596,N,4824,1
209,1,6,filler,filler_17,,/+/The students who failed the exam were asked to take it again./,Should all students take the exam again?,N,,0,12,asked,9,2,8,12,1,8,12,397,1562923600993,N,4824,1
209,1,6,filler,filler_17,,/+/The students who failed the exam were asked to take it again./,Should all students take the exam again?,N,,0,12,to,10,2,9,12,1,9,12,433,1562923601426,N,4824,1
209,1,6,filler,filler_17,,/+/The students who failed the exam were asked to take it again./,Should all students take the exam again?,N,,0,12,take,11,2,10,12,1,10,12,464,1562923601890,N,4824,1
209,1,6,filler,filler_17,,/+/The students who failed the exam were asked to take it again./,Should all students take the exam again?,N,,0,12,it,12,2,11,12,1,11,12,375,1562923602265,N,4824,1
209,1,6,filler,filler_17,,/+/The students who failed the exam were asked to take it again./,Should all students take the exam again?,N,,0,12,again.,13,2,12,12,1,12,12,493,1562923602758,N,4824,1
209,1,7,filler,filler_25,,/+/The suitcase which Mike bought has been broken down by his son./,Has the suitcase been broken by Mike?,N,,0,13,+,1,1,1,1,1,1,1,1456,1562923609553,N,4309,1
209,1,7,filler,filler_25,,/+/The suitcase which Mike bought has been broken down by his son./,Has the suitcase been broken by Mike?,N,,0,13,The,2,2,1,12,1,1,12,502,1562923610055,N,4309,1
209,1,7,filler,filler_25,,/+/The suitcase which Mike bought has been broken down by his son./,Has the suitcase been broken by Mike?,N,,0,13,suitcase,3,2,2,12,1,2,12,1266,1562923611321,N,4309,1
209,1,7,filler,filler_25,,/+/The suitcase which Mike bought has been broken down by his son./,Has the suitcase been broken by Mike?,N,,0,13,which,4,2,3,12,1,3,12,909,1562923612230,N,4309,1
209,1,7,filler,filler_25,,/+/The suitcase which Mike bought has been broken down by his son./,Has the suitcase been broken by Mike?,N,,0,13,Mike,5,2,4,12,1,4,12,964,1562923613194,N,4309,1
209,1,7,filler,filler_25,,/+/The suitcase which Mike bought has been broken down by his son./,Has the suitcase been broken by Mike?,N,,0,13,bought,6,2,5,12,1,5,12,1046,1562923614240,N,4309,1
209,1,7,filler,filler_25,,/+/The suitcase which Mike bought has been broken down by his son./,Has the suitcase been broken by Mike?,N,,0,13,has,7,2,6,12,1,6,12,1334,1562923615574,N,4309,1
209,1,7,filler,filler_25,,/+/The suitcase which Mike bought has been broken down by his son./,Has the suitcase been broken by Mike?,N,,0,13,bought,8,2,5,12,1,5,12,897,1562923616471,N,4309,1
209,1,7,filler,filler_25,,/+/The suitcase which Mike bought has been broken down by his son./,Has the suitcase been broken by Mike?,N,,0,13,has,9,2,6,12,1,6,12,669,1562923617140,N,4309,1
209,1,7,filler,filler_25,,/+/The suitcase which Mike bought has been broken down by his son./,Has the suitcase been broken by Mike?,N,,0,13,been,10,2,7,12,1,7,12,418,1562923617558,N,4309,1
209,1,7,filler,filler_25,,/+/The suitcase which Mike bought has been broken down by his son./,Has the suitcase been broken by Mike?,N,,0,13,broken,11,2,8,12,1,8,12,652,1562923618210,N,4309,1
209,1,7,filler,filler_25,,/+/The suitcase which Mike bought has been broken down by his son./,Has the suitcase been broken by Mike?,N,,0,13,down,12,2,9,12,1,9,12,479,1562923618689,N,4309,1
209,1,7,filler,filler_25,,/+/The suitcase which Mike bought has been broken down by his son./,Has the suitcase been broken by Mike?,N,,0,13,by,13,2,10,12,1,10,12,608,1562923619297,N,4309,1
209,1,7,filler,filler_25,,/+/The suitcase which Mike bought has been broken down by his son./,Has the suitcase been broken by Mike?,N,,0,13,his,14,2,11,12,1,11,12,446,1562923619743,N,4309,1
209,1,7,filler,filler_25,,/+/The suitcase which Mike bought has been broken down by his son./,Has the suitcase been broken by Mike?,N,,0,13,son.,15,2,12,12,1,12,12,1263,1562923621006,N,4309,1
209,1,8,filler,filler_24,,/+/The roommate has married the man who comes from the west of China./,Has the roomate married?,Y,,0,14,+,1,1,1,1,1,1,1,924,1562923626757,Y,3325,1
209,1,8,filler,filler_24,,/+/The roommate has married the man who comes from the west of China./,Has the roomate married?,Y,,0,14,The,2,2,1,13,1,1,13,793,1562923627550,Y,3325,1
209,1,8,filler,filler_24,,/+/The roommate has married the man who comes from the west of China./,Has the roomate married?,Y,,0,14,roommate,3,2,2,13,1,2,13,1784,1562923629334,Y,3325,1
209,1,8,filler,filler_24,,/+/The roommate has married the man who comes from the west of China./,Has the roomate married?,Y,,0,14,has,4,2,3,13,1,3,13,664,1562923629998,Y,3325,1
209,1,8,filler,filler_24,,/+/The roommate has married the man who comes from the west of China./,Has the roomate married?,Y,,0,14,married,5,2,4,13,1,4,13,938,1562923630936,Y,3325,1
209,1,8,filler,filler_24,,/+/The roommate has married the man who comes from the west of China./,Has the roomate married?,Y,,0,14,the,6,2,5,13,1,5,13,540,1562923631476,Y,3325,1
209,1,8,filler,filler_24,,/+/The roommate has married the man who comes from the west of China./,Has the roomate married?,Y,,0,14,man,7,2,6,13,1,6,13,551,1562923632027,Y,3325,1
209,1,8,filler,filler_24,,/+/The roommate has married the man who comes from the west of China./,Has the roomate married?,Y,,0,14,who,8,2,7,13,1,7,13,692,1562923632719,Y,3325,1
209,1,8,filler,filler_24,,/+/The roommate has married the man who comes from the west of China./,Has the roomate married?,Y,,0,14,comes,9,2,8,13,1,8,13,778,1562923633497,Y,3325,1
209,1,8,filler,filler_24,,/+/The roommate has married the man who comes from the west of China./,Has the roomate married?,Y,,0,14,from,10,2,9,13,1,9,13,846,1562923634343,Y,3325,1
209,1,8,filler,filler_24,,/+/The roommate has married the man who comes from the west of China./,Has the roomate married?,Y,,0,14,the,11,2,10,13,1,10,13,461,1562923634804,Y,3325,1
209,1,8,filler,filler_24,,/+/The roommate has married the man who comes from the west of China./,Has the roomate married?,Y,,0,14,west,12,2,11,13,1,11,13,1310,1562923636114,Y,3325,1
209,1,8,filler,filler_24,,/+/The roommate has married the man who comes from the west of China./,Has the roomate married?,Y,,0,14,of,13,2,12,13,1,12,13,569,1562923636683,Y,3325,1
209,1,8,filler,filler_24,,/+/The roommate has married the man who comes from the west of China./,Has the roomate married?,Y,,0,14,China.,14,2,13,13,1,13,13,1036,1562923637719,Y,3325,1
209,1,8,filler,filler_24,,/+/The roommate has married the man who comes from the west of China./,Has the roomate married?,Y,,0,14,of,15,2,12,13,1,12,13,507,1562923638226,Y,3325,1
209,1,8,filler,filler_24,,/+/The roommate has married the man who comes from the west of China./,Has the roomate married?,Y,,0,14,west,16,2,11,13,1,11,13,31,1562923638257,Y,3325,1
209,1,8,filler,filler_24,,/+/The roommate has married the man who comes from the west of China./,Has the roomate married?,Y,,0,14,the,17,2,10,13,1,10,13,29,1562923638286,Y,3325,1
209,1,8,filler,filler_24,,/+/The roommate has married the man who comes from the west of China./,Has the roomate married?,Y,,0,14,from,18,2,9,13,1,9,13,32,1562923638319,Y,3325,1
209,1,8,filler,filler_24,,/+/The roommate has married the man who comes from the west of China./,Has the roomate married?,Y,,0,14,comes,19,2,8,13,1,8,13,32,1562923638352,Y,3325,1
209,1,8,filler,filler_24,,/+/The roommate has married the man who comes from the west of China./,Has the roomate married?,Y,,0,14,who,20,2,7,13,1,7,13,32,1562923638385,Y,3325,1
209,1,8,filler,filler_24,,/+/The roommate has married the man who comes from the west of China./,Has the roomate married?,Y,,0,14,man,21,2,6,13,1,6,13,32,1562923638418,Y,3325,1
209,1,8,filler,filler_24,,/+/The roommate has married the man who comes from the west of China./,Has the roomate married?,Y,,0,14,the,22,2,5,13,1,5,13,32,1562923638451,Y,3325,1
209,1,8,filler,filler_24,,/+/The roommate has married the man who comes from the west of China./,Has the roomate married?,Y,,0,14,married,23,2,4,13,1,4,13,33,1562923638484,Y,3325,1
209,1,8,filler,filler_24,,/+/The roommate has married the man who comes from the west of China./,Has the roomate married?,Y,,0,14,has,24,2,3,13,1,3,13,274,1562923638759,Y,3325,1
209,1,8,filler,filler_24,,/+/The roommate has married the man who comes from the west of China./,Has the roomate married?,Y,,0,14,roommate,25,2,2,13,1,2,13,330,1562923639089,Y,3325,1
209,1,8,filler,filler_24,,/+/The roommate has married the man who comes from the west of China./,Has the roomate married?,Y,,0,14,The,26,2,1,13,1,1,13,1550,1562923640639,Y,3325,1
209,1,8,filler,filler_24,,/+/The roommate has married the man who comes from the west of China./,Has the roomate married?,Y,,0,14,roommate,27,2,2,13,1,2,13,492,1562923641131,Y,3325,1
209,1,8,filler,filler_24,,/+/The roommate has married the man who comes from the west of China./,Has the roomate married?,Y,,0,14,has,28,2,3,13,1,3,13,516,1562923641647,Y,3325,1
209,1,8,filler,filler_24,,/+/The roommate has married the man who comes from the west of China./,Has the roomate married?,Y,,0,14,married,29,2,4,13,1,4,13,518,1562923642165,Y,3325,1
209,1,8,filler,filler_24,,/+/The roommate has married the man who comes from the west of China./,Has the roomate married?,Y,,0,14,the,30,2,5,13,1,5,13,519,1562923642684,Y,3325,1
209,1,8,filler,filler_24,,/+/The roommate has married the man who comes from the west of China./,Has the roomate married?,Y,,0,14,man,31,2,6,13,1,6,13,548,1562923643232,Y,3325,1
209,1,8,filler,filler_24,,/+/The roommate has married the man who comes from the west of China./,Has the roomate married?,Y,,0,14,who,32,2,7,13,1,7,13,442,1562923643674,Y,3325,1
209,1,8,filler,filler_24,,/+/The roommate has married the man who comes from the west of China./,Has the roomate married?,Y,,0,14,comes,33,2,8,13,1,8,13,403,1562923644077,Y,3325,1
209,1,8,filler,filler_24,,/+/The roommate has married the man who comes from the west of China./,Has the roomate married?,Y,,0,14,from,34,2,9,13,1,9,13,276,1562923644353,Y,3325,1
209,1,8,filler,filler_24,,/+/The roommate has married the man who comes from the west of China./,Has the roomate married?,Y,,0,14,the,35,2,10,13,1,10,13,377,1562923644730,Y,3325,1
209,1,8,filler,filler_24,,/+/The roommate has married the man who comes from the west of China./,Has the roomate married?,Y,,0,14,west,36,2,11,13,1,11,13,399,1562923645129,Y,3325,1
209,1,8,filler,filler_24,,/+/The roommate has married the man who comes from the west of China./,Has the roomate married?,Y,,0,14,of,37,2,12,13,1,12,13,682,1562923645811,Y,3325,1
209,1,8,filler,filler_24,,/+/The roommate has married the man who comes from the west of China./,Has the roomate married?,Y,,0,14,China.,38,2,13,13,1,13,13,980,1562923646791,Y,3325,1
209,1,9,target,target_15,G,/+/The confused student * asked about a question * lowered * his head silently./,Did the student ask about a question?,N,,0,15,+,1,1,1,1,1,1,1,766,1562923651399,Y,2078,0
209,1,9,target,target_15,G,/+/The confused student * asked about a question * lowered * his head silently./,Did the student ask about a question?,N,,0,15,The,2,2,1,11,1,1,3,425,1562923651824,Y,2078,0
209,1,9,target,target_15,G,/+/The confused student * asked about a question * lowered * his head silently./,Did the student ask about a question?,N,,0,15,confused,3,2,2,11,1,2,3,1384,1562923653208,Y,2078,0
209,1,9,target,target_15,G,/+/The confused student * asked about a question * lowered * his head silently./,Did the student ask about a question?,N,,0,15,student,4,2,3,11,1,3,3,576,1562923653784,Y,2078,0
209,1,9,target,target_15,G,/+/The confused student * asked about a question * lowered * his head silently./,Did the student ask about a question?,N,,0,15,asked,5,2,4,11,2,1,4,475,1562923654259,Y,2078,0
209,1,9,target,target_15,G,/+/The confused student * asked about a question * lowered * his head silently./,Did the student ask about a question?,N,,0,15,about,6,2,5,11,2,2,4,406,1562923654665,Y,2078,0
209,1,9,target,target_15,G,/+/The confused student * asked about a question * lowered * his head silently./,Did the student ask about a question?,N,,0,15,a,7,2,6,11,2,3,4,508,1562923655173,Y,2078,0
209,1,9,target,target_15,G,/+/The confused student * asked about a question * lowered * his head silently./,Did the student ask about a question?,N,,0,15,question,8,2,7,11,2,4,4,550,1562923655723,Y,2078,0
209,1,9,target,target_15,G,/+/The confused student * asked about a question * lowered * his head silently./,Did the student ask about a question?,N,,0,15,lowered,9,2,8,11,3,1,1,456,1562923656179,Y,2078,0
209,1,9,target,target_15,G,/+/The confused student * asked about a question * lowered * his head silently./,Did the student ask about a question?,N,,0,15,his,10,2,9,11,4,1,3,967,1562923657146,Y,2078,0
209,1,9,target,target_15,G,/+/The confused student * asked about a question * lowered * his head silently./,Did the student ask about a question?,N,,0,15,lowered,11,2,8,11,3,1,1,704,1562923657850,Y,2078,0
209,1,9,target,target_15,G,/+/The confused student * asked about a question * lowered * his head silently./,Did the student ask about a question?,N,,0,15,his,12,2,9,11,4,1,3,390,1562923658240,Y,2078,0
209,1,9,target,target_15,G,/+/The confused student * asked about a question * lowered * his head silently./,Did the student ask about a question?,N,,0,15,head,13,2,10,11,4,2,3,398,1562923658638,Y,2078,0
209,1,9,target,target_15,G,/+/The confused student * asked about a question * lowered * his head silently./,Did the student ask about a question?,N,,0,15,silently.,14,2,11,11,4,3,3,1759,1562923660397,Y,2078,0
209,1,9,target,target_15,G,/+/The confused student * asked about a question * lowered * his head silently./,Did the student ask about a question?,N,,0,15,head,15,2,10,11,4,2,3,473,1562923660870,Y,2078,0
209,1,9,target,target_15,G,/+/The confused student * asked about a question * lowered * his head silently./,Did the student ask about a question?,N,,0,15,his,16,2,9,11,4,1,3,361,1562923661247,Y,2078,0
209,1,9,target,target_15,G,/+/The confused student * asked about a question * lowered * his head silently./,Did the student ask about a question?,N,,0,15,lowered,17,2,8,11,3,1,1,414,1562923661661,Y,2078,0
209,1,9,target,target_15,G,/+/The confused student * asked about a question * lowered * his head silently./,Did the student ask about a question?,N,,0,15,question,18,2,7,11,2,4,4,307,1562923661968,Y,2078,0
209,1,9,target,target_15,G,/+/The confused student * asked about a question * lowered * his head silently./,Did the student ask about a question?,N,,0,15,a,19,2,6,11,2,3,4,457,1562923662425,Y,2078,0
209,1,9,target,target_15,G,/+/The confused student * asked about a question * lowered * his head silently./,Did the student ask about a question?,N,,0,15,about,20,2,5,11,2,2,4,264,1562923662689,Y,2078,0
209,1,9,target,target_15,G,/+/The confused student * asked about a question * lowered * his head silently./,Did the student ask about a question?,N,,0,15,asked,21,2,4,11,2,1,4,345,1562923663034,Y,2078,0
209,1,9,target,target_15,G,/+/The confused student * asked about a question * lowered * his head silently./,Did the student ask about a question?,N,,0,15,student,22,2,3,11,1,3,3,288,1562923663322,Y,2078,0
209,1,9,target,target_15,G,/+/The confused student * asked about a question * lowered * his head silently./,Did the student ask about a question?,N,,0,15,confused,23,2,2,11,1,2,3,424,1562923663746,Y,2078,0
209,1,9,target,target_15,G,/+/The confused student * asked about a question * lowered * his head silently./,Did the student ask about a question?,N,,0,15,The,24,2,1,11,1,1,3,917,1562923664663,Y,2078,0
209,1,9,target,target_15,G,/+/The confused student * asked about a question * lowered * his head silently./,Did the student ask about a question?,N,,0,15,confused,25,2,2,11,1,2,3,218,1562923664881,Y,2078,0
209,1,9,target,target_15,G,/+/The confused student * asked about a question * lowered * his head silently./,Did the student ask about a question?,N,,0,15,student,26,2,3,11,1,3,3,185,1562923665066,Y,2078,0
209,1,9,target,target_15,G,/+/The confused student * asked about a question * lowered * his head silently./,Did the student ask about a question?,N,,0,15,asked,27,2,4,11,2,1,4,184,1562923665250,Y,2078,0
209,1,9,target,target_15,G,/+/The confused student * asked about a question * lowered * his head silently./,Did the student ask about a question?,N,,0,15,about,28,2,5,11,2,2,4,216,1562923665466,Y,2078,0
209,1,9,target,target_15,G,/+/The confused student * asked about a question * lowered * his head silently./,Did the student ask about a question?,N,,0,15,a,29,2,6,11,2,3,4,184,1562923665650,Y,2078,0
209,1,9,target,target_15,G,/+/The confused student * asked about a question * lowered * his head silently./,Did the student ask about a question?,N,,0,15,question,30,2,7,11,2,4,4,168,1562923665818,Y,2078,0
209,1,9,target,target_15,G,/+/The confused student * asked about a question * lowered * his head silently./,Did the student ask about a question?,N,,0,15,lowered,31,2,8,11,3,1,1,230,1562923666048,Y,2078,0
209,1,9,target,target_15,G,/+/The confused student * asked about a question * lowered * his head silently./,Did the student ask about a question?,N,,0,15,his,32,2,9,11,4,1,3,311,1562923666359,Y,2078,0
209,1,9,target,target_15,G,/+/The confused student * asked about a question * lowered * his head silently./,Did the student ask about a question?,N,,0,15,head,33,2,10,11,4,2,3,349,1562923666708,Y,2078,0
209,1,9,target,target_15,G,/+/The confused student * asked about a question * lowered * his head silently./,Did the student ask about a question?,N,,0,15,silently.,34,2,11,11,4,3,3,365,1562923667073,Y,2078,0
209,1,10,filler,filler_22,,/+/The girl's life was saved because the doctor acted so well./,Did the girl die?,N,,0,16,+,1,1,1,1,1,1,1,900,1562923670559,N,2420,1
209,1,10,filler,filler_22,,/+/The girl's life was saved because the doctor acted so well./,Did the girl die?,N,,0,16,The,2,2,1,11,1,1,11,544,1562923671103,N,2420,1
209,1,10,filler,filler_22,,/+/The girl's life was saved because the doctor acted so well./,Did the girl die?,N,,0,16,girl's,3,2,2,11,1,2,11,471,1562923671574,N,2420,1
209,1,10,filler,filler_22,,/+/The girl's life was saved because the doctor acted so well./,Did the girl die?,N,,0,16,life,4,2,3,11,1,3,11,687,1562923672261,N,2420,1
209,1,10,filler,filler_22,,/+/The girl's life was saved because the doctor acted so well./,Did the girl die?,N,,0,16,was,5,2,4,11,1,4,11,466,1562923672727,N,2420,1
209,1,10,filler,filler_22,,/+/The girl's life was saved because the doctor acted so well./,Did the girl die?,N,,0,16,saved,6,2,5,11,1,5,11,514,1562923673241,N,2420,1
209,1,10,filler,filler_22,,/+/The girl's life was saved because the doctor acted so well./,Did the girl die?,N,,0,16,because,7,2,6,11,1,6,11,1845,1562923675086,N,2420,1
209,1,10,filler,filler_22,,/+/The girl's life was saved because the doctor acted so well./,Did the girl die?,N,,0,16,the,8,2,7,11,1,7,11,619,1562923675705,N,2420,1
209,1,10,filler,filler_22,,/+/The girl's life was saved because the doctor acted so well./,Did the girl die?,N,,0,16,doctor,9,2,8,11,1,8,11,696,1562923676401,N,2420,1
209,1,10,filler,filler_22,,/+/The girl's life was saved because the doctor acted so well./,Did the girl die?,N,,0,16,acted,10,2,9,11,1,9,11,842,1562923677243,N,2420,1
209,1,10,filler,filler_22,,/+/The girl's life was saved because the doctor acted so well./,Did the girl die?,N,,0,16,so,11,2,10,11,1,10,11,571,1562923677814,N,2420,1
209,1,10,filler,filler_22,,/+/The girl's life was saved because the doctor acted so well./,Did the girl die?,N,,0,16,well.,12,2,11,11,1,11,11,724,1562923678554,N,2420,1
209,1,11,target,target_4,G,/+/The convicted criminal * watched at the railway station * was * following the boy./,Did someone watch the criminal?,Y,,0,17,+,1,1,1,1,1,1,1,627,1562923682117,N,18333,0
209,1,11,target,target_4,G,/+/The convicted criminal * watched at the railway station * was * following the boy./,Did someone watch the criminal?,Y,,0,17,The,2,2,1,12,1,1,3,495,1562923682612,N,18333,0
209,1,11,target,target_4,G,/+/The convicted criminal * watched at the railway station * was * following the boy./,Did someone watch the criminal?,Y,,0,17,convicted,3,2,2,12,1,2,3,923,1562923683535,N,18333,0
209,1,11,target,target_4,G,/+/The convicted criminal * watched at the railway station * was * following the boy./,Did someone watch the criminal?,Y,,0,17,criminal,4,2,3,12,1,3,3,1183,1562923684718,N,18333,0
209,1,11,target,target_4,G,/+/The convicted criminal * watched at the railway station * was * following the boy./,Did someone watch the criminal?,Y,,0,17,convicted,5,2,2,12,1,2,3,983,1562923685701,N,18333,0
209,1,11,target,target_4,G,/+/The convicted criminal * watched at the railway station * was * following the boy./,Did someone watch the criminal?,Y,,0,17,criminal,6,2,3,12,1,3,3,532,1562923686233,N,18333,0
209,1,11,target,target_4,G,/+/The convicted criminal * watched at the railway station * was * following the boy./,Did someone watch the criminal?,Y,,0,17,watched,7,2,4,12,2,1,5,1486,1562923687719,N,18333,0
209,1,11,target,target_4,G,/+/The convicted criminal * watched at the railway station * was * following the boy./,Did someone watch the criminal?,Y,,0,17,at,8,2,5,12,2,2,5,518,1562923688237,N,18333,0
209,1,11,target,target_4,G,/+/The convicted criminal * watched at the railway station * was * following the boy./,Did someone watch the criminal?,Y,,0,17,the,9,2,6,12,2,3,5,456,1562923688693,N,18333,0
209,1,11,target,target_4,G,/+/The convicted criminal * watched at the railway station * was * following the boy./,Did someone watch the criminal?,Y,,0,17,railway,10,2,7,12,2,4,5,797,1562923689490,N,18333,0
209,1,11,target,target_4,G,/+/The convicted criminal * watched at the railway station * was * following the boy./,Did someone watch the criminal?,Y,,0,17,station,11,2,8,12,2,5,5,642,1562923690132,N,18333,0
209,1,11,target,target_4,G,/+/The convicted criminal * watched at the railway station * was * following the boy./,Did someone watch the criminal?,Y,,0,17,was,12,2,9,12,3,1,1,448,1562923690580,N,18333,0
209,1,11,target,target_4,G,/+/The convicted criminal * watched at the railway station * was * following the boy./,Did someone watch the criminal?,Y,,0,17,following,13,2,10,12,4,1,3,701,1562923691281,N,18333,0
209,1,11,target,target_4,G,/+/The convicted criminal * watched at the railway station * was * following the boy./,Did someone watch the criminal?,Y,,0,17,the,14,2,11,12,4,2,3,435,1562923691716,N,18333,0
209,1,11,target,target_4,G,/+/The convicted criminal * watched at the railway station * was * following the boy./,Did someone watch the criminal?,Y,,0,17,boy.,15,2,12,12,4,3,3,1172,1562923692888,N,18333,0
209,1,11,target,target_4,G,/+/The convicted criminal * watched at the railway station * was * following the boy./,Did someone watch the criminal?,Y,,0,17,the,16,2,11,12,4,2,3,511,1562923693399,N,18333,0
209,1,11,target,target_4,G,/+/The convicted criminal * watched at the railway station * was * following the boy./,Did someone watch the criminal?,Y,,0,17,following,17,2,10,12,4,1,3,31,1562923693430,N,18333,0
209,1,11,target,target_4,G,/+/The convicted criminal * watched at the railway station * was * following the boy./,Did someone watch the criminal?,Y,,0,17,was,18,2,9,12,3,1,1,25,1562923693455,N,18333,0
209,1,11,target,target_4,G,/+/The convicted criminal * watched at the railway station * was * following the boy./,Did someone watch the criminal?,Y,,0,17,station,19,2,8,12,2,5,5,40,1562923693496,N,18333,0
209,1,11,target,target_4,G,/+/The convicted criminal * watched at the railway station * was * following the boy./,Did someone watch the criminal?,Y,,0,17,railway,20,2,7,12,2,4,5,33,1562923693529,N,18333,0
209,1,11,target,target_4,G,/+/The convicted criminal * watched at the railway station * was * following the boy./,Did someone watch the criminal?,Y,,0,17,the,21,2,6,12,2,3,5,25,1562923693554,N,18333,0
209,1,11,target,target_4,G,/+/The convicted criminal * watched at the railway station * was * following the boy./,Did someone watch the criminal?,Y,,0,17,at,22,2,5,12,2,2,5,41,1562923693596,N,18333,0
209,1,11,target,target_4,G,/+/The convicted criminal * watched at the railway station * was * following the boy./,Did someone watch the criminal?,Y,,0,17,watched,23,2,4,12,2,1,5,488,1562923694084,N,18333,0
209,1,11,target,target_4,G,/+/The convicted criminal * watched at the railway station * was * following the boy./,Did someone watch the criminal?,Y,,0,17,criminal,24,2,3,12,1,3,3,423,1562923694507,N,18333,0
209,1,11,target,target_4,G,/+/The convicted criminal * watched at the railway station * was * following the boy./,Did someone watch the criminal?,Y,,0,17,convicted,25,2,2,12,1,2,3,542,1562923695049,N,18333,0
209,1,11,target,target_4,G,/+/The convicted criminal * watched at the railway station * was * following the boy./,Did someone watch the criminal?,Y,,0,17,The,26,2,1,12,1,1,3,1409,1562923696458,N,18333,0
209,1,11,target,target_4,G,/+/The convicted criminal * watched at the railway station * was * following the boy./,Did someone watch the criminal?,Y,,0,17,convicted,27,2,2,12,1,2,3,482,1562923696940,N,18333,0
209,1,11,target,target_4,G,/+/The convicted criminal * watched at the railway station * was * following the boy./,Did someone watch the criminal?,Y,,0,17,criminal,28,2,3,12,1,3,3,938,1562923697878,N,18333,0
209,1,11,target,target_4,G,/+/The convicted criminal * watched at the railway station * was * following the boy./,Did someone watch the criminal?,Y,,0,17,watched,29,2,4,12,2,1,5,481,1562923698359,N,18333,0
209,1,11,target,target_4,G,/+/The convicted criminal * watched at the railway station * was * following the boy./,Did someone watch the criminal?,Y,,0,17,at,30,2,5,12,2,2,5,1141,1562923699500,N,18333,0
209,1,11,target,target_4,G,/+/The convicted criminal * watched at the railway station * was * following the boy./,Did someone watch the criminal?,Y,,0,17,the,31,2,6,12,2,3,5,666,1562923700166,N,18333,0
209,1,11,target,target_4,G,/+/The convicted criminal * watched at the railway station * was * following the boy./,Did someone watch the criminal?,Y,,0,17,railway,32,2,7,12,2,4,5,997,1562923701163,N,18333,0
209,1,11,target,target_4,G,/+/The convicted criminal * watched at the railway station * was * following the boy./,Did someone watch the criminal?,Y,,0,17,station,33,2,8,12,2,5,5,517,1562923701680,N,18333,0
209,1,11,target,target_4,G,/+/The convicted criminal * watched at the railway station * was * following the boy./,Did someone watch the criminal?,Y,,0,17,was,34,2,9,12,3,1,1,704,1562923702384,N,18333,0
209,1,11,target,target_4,G,/+/The convicted criminal * watched at the railway station * was * following the boy./,Did someone watch the criminal?,Y,,0,17,following,35,2,10,12,4,1,3,1047,1562923703431,N,18333,0
209,1,11,target,target_4,G,/+/The convicted criminal * watched at the railway station * was * following the boy./,Did someone watch the criminal?,Y,,0,17,the,36,2,11,12,4,2,3,631,1562923704062,N,18333,0
209,1,11,target,target_4,G,/+/The convicted criminal * watched at the railway station * was * following the boy./,Did someone watch the criminal?,Y,,0,17,boy.,37,2,12,12,4,3,3,696,1562923704773,N,18333,0
209,1,12,filler,filler_35,,/+/The company building was completed successfully in the third quarter./,Was the company building completed?,Y,,0,18,+,1,1,1,1,1,1,1,1050,1562923724670,N,5635,0
209,1,12,filler,filler_35,,/+/The company building was completed successfully in the third quarter./,Was the company building completed?,Y,,0,18,The,2,2,1,10,1,1,10,1443,1562923726113,N,5635,0
209,1,12,filler,filler_35,,/+/The company building was completed successfully in the third quarter./,Was the company building completed?,Y,,0,18,company,3,2,2,10,1,2,10,1235,1562923727348,N,5635,0
209,1,12,filler,filler_35,,/+/The company building was completed successfully in the third quarter./,Was the company building completed?,Y,,0,18,building,4,2,3,10,1,3,10,609,1562923727957,N,5635,0
209,1,12,filler,filler_35,,/+/The company building was completed successfully in the third quarter./,Was the company building completed?,Y,,0,18,was,5,2,4,10,1,4,10,478,1562923728435,N,5635,0
209,1,12,filler,filler_35,,/+/The company building was completed successfully in the third quarter./,Was the company building completed?,Y,,0,18,completed,6,2,5,10,1,5,10,2342,1562923730777,N,5635,0
209,1,12,filler,filler_35,,/+/The company building was completed successfully in the third quarter./,Was the company building completed?,Y,,0,18,was,7,2,4,10,1,4,10,231,1562923731008,N,5635,0
209,1,12,filler,filler_35,,/+/The company building was completed successfully in the third quarter./,Was the company building completed?,Y,,0,18,building,8,2,3,10,1,3,10,326,1562923731334,N,5635,0
209,1,12,filler,filler_35,,/+/The company building was completed successfully in the third quarter./,Was the company building completed?,Y,,0,18,company,9,2,2,10,1,2,10,723,1562923732057,N,5635,0
209,1,12,filler,filler_35,,/+/The company building was completed successfully in the third quarter./,Was the company building completed?,Y,,0,18,The,10,2,1,10,1,1,10,611,1562923732668,N,5635,0
209,1,12,filler,filler_35,,/+/The company building was completed successfully in the third quarter./,Was the company building completed?,Y,,0,18,company,11,2,2,10,1,2,10,912,1562923733580,N,5635,0
209,1,12,filler,filler_35,,/+/The company building was completed successfully in the third quarter./,Was the company building completed?,Y,,0,18,building,12,2,3,10,1,3,10,451,1562923734031,N,5635,0
209,1,12,filler,filler_35,,/+/The company building was completed successfully in the third quarter./,Was the company building completed?,Y,,0,18,was,13,2,4,10,1,4,10,826,1562923734857,N,5635,0
209,1,12,filler,filler_35,,/+/The company building was completed successfully in the third quarter./,Was the company building completed?,Y,,0,18,completed,14,2,5,10,1,5,10,1676,1562923736533,N,5635,0
209,1,12,filler,filler_35,,/+/The company building was completed successfully in the third quarter./,Was the company building completed?,Y,,0,18,successfully,15,2,6,10,1,6,10,1873,1562923738406,N,5635,0
209,1,12,filler,filler_35,,/+/The company building was completed successfully in the third quarter./,Was the company building completed?,Y,,0,18,in,16,2,7,10,1,7,10,450,1562923738856,N,5635,0
209,1,12,filler,filler_35,,/+/The company building was completed successfully in the third quarter./,Was the company building completed?,Y,,0,18,the,17,2,8,10,1,8,10,358,1562923739214,N,5635,0
209,1,12,filler,filler_35,,/+/The company building was completed successfully in the third quarter./,Was the company building completed?,Y,,0,18,third,18,2,9,10,1,9,10,554,1562923739768,N,5635,0
209,1,12,filler,filler_35,,/+/The company building was completed successfully in the third quarter./,Was the company building completed?,Y,,0,18,quarter.,19,2,10,10,1,10,10,1299,1562923741067,N,5635,0
209,1,12,filler,filler_35,,/+/The company building was completed successfully in the third quarter./,Was the company building completed?,Y,,0,18,third,20,2,9,10,1,9,10,226,1562923741293,N,5635,0
209,1,12,filler,filler_35,,/+/The company building was completed successfully in the third quarter./,Was the company building completed?,Y,,0,18,the,21,2,8,10,1,8,10,205,1562923741498,N,5635,0
209,1,12,filler,filler_35,,/+/The company building was completed successfully in the third quarter./,Was the company building completed?,Y,,0,18,in,22,2,7,10,1,7,10,167,1562923741665,N,5635,0
209,1,12,filler,filler_35,,/+/The company building was completed successfully in the third quarter./,Was the company building completed?,Y,,0,18,successfully,23,2,6,10,1,6,10,200,1562923741865,N,5635,0
209,1,12,filler,filler_35,,/+/The company building was completed successfully in the third quarter./,Was the company building completed?,Y,,0,18,completed,24,2,5,10,1,5,10,495,1562923742360,N,5635,0
209,1,12,filler,filler_35,,/+/The company building was completed successfully in the third quarter./,Was the company building completed?,Y,,0,18,was,25,2,4,10,1,4,10,236,1562923742596,N,5635,0
209,1,12,filler,filler_35,,/+/The company building was completed successfully in the third quarter./,Was the company building completed?,Y,,0,18,building,26,2,3,10,1,3,10,312,1562923742908,N,5635,0
209,1,12,filler,filler_35,,/+/The company building was completed successfully in the third quarter./,Was the company building completed?,Y,,0,18,company,27,2,2,10,1,2,10,519,1562923743427,N,5635,0
209,1,12,filler,filler_35,,/+/The company building was completed successfully in the third quarter./,Was the company building completed?,Y,,0,18,The,28,2,1,10,1,1,10,346,1562923743773,N,5635,0
209,1,12,filler,filler_35,,/+/The company building was completed successfully in the third quarter./,Was the company building completed?,Y,,0,18,company,29,2,2,10,1,2,10,382,1562923744155,N,5635,0
209,1,12,filler,filler_35,,/+/The company building was completed successfully in the third quarter./,Was the company building completed?,Y,,0,18,building,30,2,3,10,1,3,10,307,1562923744462,N,5635,0
209,1,12,filler,filler_35,,/+/The company building was completed successfully in the third quarter./,Was the company building completed?,Y,,0,18,was,31,2,4,10,1,4,10,346,1562923744808,N,5635,0
209,1,12,filler,filler_35,,/+/The company building was completed successfully in the third quarter./,Was the company building completed?,Y,,0,18,completed,32,2,5,10,1,5,10,1287,1562923746095,N,5635,0
209,1,12,filler,filler_35,,/+/The company building was completed successfully in the third quarter./,Was the company building completed?,Y,,0,18,successfully,33,2,6,10,1,6,10,740,1562923746835,N,5635,0
209,1,12,filler,filler_35,,/+/The company building was completed successfully in the third quarter./,Was the company building completed?,Y,,0,18,in,34,2,7,10,1,7,10,394,1562923747229,N,5635,0
209,1,12,filler,filler_35,,/+/The company building was completed successfully in the third quarter./,Was the company building completed?,Y,,0,18,successfully,35,2,6,10,1,6,10,367,1562923747596,N,5635,0
209,1,12,filler,filler_35,,/+/The company building was completed successfully in the third quarter./,Was the company building completed?,Y,,0,18,in,36,2,7,10,1,7,10,211,1562923747807,N,5635,0
209,1,12,filler,filler_35,,/+/The company building was completed successfully in the third quarter./,Was the company building completed?,Y,,0,18,the,37,2,8,10,1,8,10,327,1562923748134,N,5635,0
209,1,12,filler,filler_35,,/+/The company building was completed successfully in the third quarter./,Was the company building completed?,Y,,0,18,third,38,2,9,10,1,9,10,567,1562923748701,N,5635,0
209,1,12,filler,filler_35,,/+/The company building was completed successfully in the third quarter./,Was the company building completed?,Y,,0,18,quarter.,39,2,10,10,1,10,10,785,1562923749486,N,5635,0
209,1,12,filler,filler_35,,/+/The company building was completed successfully in the third quarter./,Was the company building completed?,Y,,0,18,third,40,2,9,10,1,9,10,195,1562923749681,N,5635,0
209,1,12,filler,filler_35,,/+/The company building was completed successfully in the third quarter./,Was the company building completed?,Y,,0,18,the,41,2,8,10,1,8,10,230,1562923749911,N,5635,0
209,1,12,filler,filler_35,,/+/The company building was completed successfully in the third quarter./,Was the company building completed?,Y,,0,18,in,42,2,7,10,1,7,10,202,1562923750113,N,5635,0
209,1,12,filler,filler_35,,/+/The company building was completed successfully in the third quarter./,Was the company building completed?,Y,,0,18,successfully,43,2,6,10,1,6,10,200,1562923750313,N,5635,0
209,1,12,filler,filler_35,,/+/The company building was completed successfully in the third quarter./,Was the company building completed?,Y,,0,18,completed,44,2,5,10,1,5,10,216,1562923750529,N,5635,0
209,1,12,filler,filler_35,,/+/The company building was completed successfully in the third quarter./,Was the company building completed?,Y,,0,18,was,45,2,4,10,1,4,10,359,1562923750888,N,5635,0
209,1,12,filler,filler_35,,/+/The company building was completed successfully in the third quarter./,Was the company building completed?,Y,,0,18,building,46,2,3,10,1,3,10,257,1562923751145,N,5635,0
209,1,12,filler,filler_35,,/+/The company building was completed successfully in the third quarter./,Was the company building completed?,Y,,0,18,company,47,2,2,10,1,2,10,343,1562923751488,N,5635,0
209,1,12,filler,filler_35,,/+/The company building was completed successfully in the third quarter./,Was the company building completed?,Y,,0,18,The,48,2,1,10,1,1,10,335,1562923751823,N,5635,0
209,1,12,filler,filler_35,,/+/The company building was completed successfully in the third quarter./,Was the company building completed?,Y,,0,18,company,49,2,2,10,1,2,10,257,1562923752080,N,5635,0
209,1,12,filler,filler_35,,/+/The company building was completed successfully in the third quarter./,Was the company building completed?,Y,,0,18,building,50,2,3,10,1,3,10,188,1562923752268,N,5635,0
209,1,12,filler,filler_35,,/+/The company building was completed successfully in the third quarter./,Was the company building completed?,Y,,0,18,was,51,2,4,10,1,4,10,183,1562923752451,N,5635,0
209,1,12,filler,filler_35,,/+/The company building was completed successfully in the third quarter./,Was the company building completed?,Y,,0,18,completed,52,2,5,10,1,5,10,137,1562923752588,N,5635,0
209,1,12,filler,filler_35,,/+/The company building was completed successfully in the third quarter./,Was the company building completed?,Y,,0,18,successfully,53,2,6,10,1,6,10,196,1562923752784,N,5635,0
209,1,12,filler,filler_35,,/+/The company building was completed successfully in the third quarter./,Was the company building completed?,Y,,0,18,in,54,2,7,10,1,7,10,247,1562923753031,N,5635,0
209,1,12,filler,filler_35,,/+/The company building was completed successfully in the third quarter./,Was the company building completed?,Y,,0,18,the,55,2,8,10,1,8,10,329,1562923753360,N,5635,0
209,1,12,filler,filler_35,,/+/The company building was completed successfully in the third quarter./,Was the company building completed?,Y,,0,18,third,56,2,9,10,1,9,10,288,1562923753648,N,5635,0
209,1,12,filler,filler_35,,/+/The company building was completed successfully in the third quarter./,Was the company building completed?,Y,,0,18,quarter.,57,2,10,10,1,10,10,548,1562923754196,N,5635,0
209,1,13,target,target_8,C,/+/The older kids * who were * showed all the dances * felt * amazed at the party./,Did the older kids show the dances?,N,,0,19,+,1,1,1,1,1,1,1,3272,1562923763606,N,5821,1
209,1,13,target,target_8,C,/+/The older kids * who were * showed all the dances * felt * amazed at the party./,Did the older kids show the dances?,N,,0,19,The,2,2,1,14,1,1,3,778,1562923764384,N,5821,1
209,1,13,target,target_8,C,/+/The older kids * who were * showed all the dances * felt * amazed at the party./,Did the older kids show the dances?,N,,0,19,older,3,2,2,14,1,2,3,1002,1562923765386,N,5821,1
209,1,13,target,target_8,C,/+/The older kids * who were * showed all the dances * felt * amazed at the party./,Did the older kids show the dances?,N,,0,19,kids,4,2,3,14,1,3,3,1641,1562923767027,N,5821,1
209,1,13,target,target_8,C,/+/The older kids * who were * showed all the dances * felt * amazed at the party./,Did the older kids show the dances?,N,,0,19,who,5,2,4,14,2,1,2,470,1562923767497,N,5821,1
209,1,13,target,target_8,C,/+/The older kids * who were * showed all the dances * felt * amazed at the party./,Did the older kids show the dances?,N,,0,19,were,6,2,5,14,2,2,2,964,1562923768461,N,5821,1
209,1,13,target,target_8,C,/+/The older kids * who were * showed all the dances * felt * amazed at the party./,Did the older kids show the dances?,N,,0,19,showed,7,2,6,14,3,1,4,485,1562923768946,N,5821,1
209,1,13,target,target_8,C,/+/The older kids * who were * showed all the dances * felt * amazed at the party./,Did the older kids show the dances?,N,,0,19,all,8,2,7,14,3,2,4,408,1562923769354,N,5821,1
209,1,13,target,target_8,C,/+/The older kids * who were * showed all the dances * felt * amazed at the party./,Did the older kids show the dances?,N,,0,19,the,9,2,8,14,3,3,4,322,1562923769676,N,5821,1
209,1,13,target,target_8,C,/+/The older kids * who were * showed all the dances * felt * amazed at the party./,Did the older kids show the dances?,N,,0,19,dances,10,2,9,14,3,4,4,333,1562923770009,N,5821,1
209,1,13,target,target_8,C,/+/The older kids * who were * showed all the dances * felt * amazed at the party./,Did the older kids show the dances?,N,,0,19,felt,11,2,10,14,4,1,1,693,1562923770702,N,5821,1
209,1,13,target,target_8,C,/+/The older kids * who were * showed all the dances * felt * amazed at the party./,Did the older kids show the dances?,N,,0,19,dances,12,2,9,14,3,4,4,700,1562923771402,N,5821,1
209,1,13,target,target_8,C,/+/The older kids * who were * showed all the dances * felt * amazed at the party./,Did the older kids show the dances?,N,,0,19,felt,13,2,10,14,4,1,1,344,1562923771746,N,5821,1
209,1,13,target,target_8,C,/+/The older kids * who were * showed all the dances * felt * amazed at the party./,Did the older kids show the dances?,N,,0,19,amazed,14,2,11,14,5,1,4,551,1562923772297,N,5821,1
209,1,13,target,target_8,C,/+/The older kids * who were * showed all the dances * felt * amazed at the party./,Did the older kids show the dances?,N,,0,19,at,15,2,12,14,5,2,4,521,1562923772818,N,5821,1
209,1,13,target,target_8,C,/+/The older kids * who were * showed all the dances * felt * amazed at the party./,Did the older kids show the dances?,N,,0,19,the,16,2,13,14,5,3,4,377,1562923773195,N,5821,1
209,1,13,target,target_8,C,/+/The older kids * who were * showed all the dances * felt * amazed at the party./,Did the older kids show the dances?,N,,0,19,party.,17,2,14,14,5,4,4,617,1562923773812,N,5821,1
209,1,13,target,target_8,C,/+/The older kids * who were * showed all the dances * felt * amazed at the party./,Did the older kids show the dances?,N,,0,19,the,18,2,13,14,5,3,4,213,1562923774025,N,5821,1
209,1,13,target,target_8,C,/+/The older kids * who were * showed all the dances * felt * amazed at the party./,Did the older kids show the dances?,N,,0,19,at,19,2,12,14,5,2,4,216,1562923774241,N,5821,1
209,1,13,target,target_8,C,/+/The older kids * who were * showed all the dances * felt * amazed at the party./,Did the older kids show the dances?,N,,0,19,amazed,20,2,11,14,5,1,4,171,1562923774412,N,5821,1
209,1,13,target,target_8,C,/+/The older kids * who were * showed all the dances * felt * amazed at the party./,Did the older kids show the dances?,N,,0,19,felt,21,2,10,14,4,1,1,230,1562923774642,N,5821,1
209,1,13,target,target_8,C,/+/The older kids * who were * showed all the dances * felt * amazed at the party./,Did the older kids show the dances?,N,,0,19,dances,22,2,9,14,3,4,4,202,1562923774844,N,5821,1
209,1,13,target,target_8,C,/+/The older kids * who were * showed all the dances * felt * amazed at the party./,Did the older kids show the dances?,N,,0,19,the,23,2,8,14,3,3,4,200,1562923775044,N,5821,1
209,1,13,target,target_8,C,/+/The older kids * who were * showed all the dances * felt * amazed at the party./,Did the older kids show the dances?,N,,0,19,all,24,2,7,14,3,2,4,185,1562923775229,N,5821,1
209,1,13,target,target_8,C,/+/The older kids * who were * showed all the dances * felt * amazed at the party./,Did the older kids show the dances?,N,,0,19,showed,25,2,6,14,3,1,4,214,1562923775443,N,5821,1
209,1,13,target,target_8,C,/+/The older kids * who were * showed all the dances * felt * amazed at the party./,Did the older kids show the dances?,N,,0,19,were,26,2,5,14,2,2,2,219,1562923775662,N,5821,1
209,1,13,target,target_8,C,/+/The older kids * who were * showed all the dances * felt * amazed at the party./,Did the older kids show the dances?,N,,0,19,who,27,2,4,14,2,1,2,220,1562923775882,N,5821,1
209,1,13,target,target_8,C,/+/The older kids * who were * showed all the dances * felt * amazed at the party./,Did the older kids show the dances?,N,,0,19,kids,28,2,3,14,1,3,3,322,1562923776204,N,5821,1
209,1,13,target,target_8,C,/+/The older kids * who were * showed all the dances * felt * amazed at the party./,Did the older kids show the dances?,N,,0,19,older,29,2,2,14,1,2,3,240,1562923776444,N,5821,1
209,1,13,target,target_8,C,/+/The older kids * who were * showed all the dances * felt * amazed at the party./,Did the older kids show the dances?,N,,0,19,The,30,2,1,14,1,1,3,750,1562923777194,N,5821,1
209,1,13,target,target_8,C,/+/The older kids * who were * showed all the dances * felt * amazed at the party./,Did the older kids show the dances?,N,,0,19,older,31,2,2,14,1,2,3,502,1562923777696,N,5821,1
209,1,13,target,target_8,C,/+/The older kids * who were * showed all the dances * felt * amazed at the party./,Did the older kids show the dances?,N,,0,19,kids,32,2,3,14,1,3,3,890,1562923778586,N,5821,1
209,1,13,target,target_8,C,/+/The older kids * who were * showed all the dances * felt * amazed at the party./,Did the older kids show the dances?,N,,0,19,who,33,2,4,14,2,1,2,527,1562923779113,N,5821,1
209,1,13,target,target_8,C,/+/The older kids * who were * showed all the dances * felt * amazed at the party./,Did the older kids show the dances?,N,,0,19,were,34,2,5,14,2,2,2,362,1562923779475,N,5821,1
209,1,13,target,target_8,C,/+/The older kids * who were * showed all the dances * felt * amazed at the party./,Did the older kids show the dances?,N,,0,19,showed,35,2,6,14,3,1,4,460,1562923779935,N,5821,1
209,1,13,target,target_8,C,/+/The older kids * who were * showed all the dances * felt * amazed at the party./,Did the older kids show the dances?,N,,0,19,all,36,2,7,14,3,2,4,453,1562923780388,N,5821,1
209,1,13,target,target_8,C,/+/The older kids * who were * showed all the dances * felt * amazed at the party./,Did the older kids show the dances?,N,,0,19,the,37,2,8,14,3,3,4,419,1562923780807,N,5821,1
209,1,13,target,target_8,C,/+/The older kids * who were * showed all the dances * felt * amazed at the party./,Did the older kids show the dances?,N,,0,19,dances,38,2,9,14,3,4,4,480,1562923781287,N,5821,1
209,1,13,target,target_8,C,/+/The older kids * who were * showed all the dances * felt * amazed at the party./,Did the older kids show the dances?,N,,0,19,felt,39,2,10,14,4,1,1,703,1562923781990,N,5821,1
209,1,13,target,target_8,C,/+/The older kids * who were * showed all the dances * felt * amazed at the party./,Did the older kids show the dances?,N,,0,19,amazed,40,2,11,14,5,1,4,513,1562923782503,N,5821,1
209,1,13,target,target_8,C,/+/The older kids * who were * showed all the dances * felt * amazed at the party./,Did the older kids show the dances?,N,,0,19,at,41,2,12,14,5,2,4,408,1562923782911,N,5821,1
209,1,13,target,target_8,C,/+/The older kids * who were * showed all the dances * felt * amazed at the party./,Did the older kids show the dances?,N,,0,19,the,42,2,13,14,5,3,4,403,1562923783314,N,5821,1
209,1,13,target,target_8,C,/+/The older kids * who were * showed all the dances * felt * amazed at the party./,Did the older kids show the dances?,N,,0,19,party.,43,2,14,14,5,4,4,1272,1562923784586,N,5821,1
209,1,14,filler,filler_27,,/+/The letter that came this morning was from a friendly classmate./,Did the letter arrive this morning?,Y,,0,20,+,1,1,1,1,1,1,1,1069,1562923791999,Y,5478,1
209,1,14,filler,filler_27,,/+/The letter that came this morning was from a friendly classmate./,Did the letter arrive this morning?,Y,,0,20,The,2,2,1,11,1,1,11,477,1562923792476,Y,5478,1
209,1,14,filler,filler_27,,/+/The letter that came this morning was from a friendly classmate./,Did the letter arrive this morning?,Y,,0,20,letter,3,2,2,11,1,2,11,499,1562923792975,Y,5478,1
209,1,14,filler,filler_27,,/+/The letter that came this morning was from a friendly classmate./,Did the letter arrive this morning?,Y,,0,20,that,4,2,3,11,1,3,11,453,1562923793428,Y,5478,1
209,1,14,filler,filler_27,,/+/The letter that came this morning was from a friendly classmate./,Did the letter arrive this morning?,Y,,0,20,came,5,2,4,11,1,4,11,626,1562923794054,Y,5478,1
209,1,14,filler,filler_27,,/+/The letter that came this morning was from a friendly classmate./,Did the letter arrive this morning?,Y,,0,20,this,6,2,5,11,1,5,11,568,1562923794622,Y,5478,1
209,1,14,filler,filler_27,,/+/The letter that came this morning was from a friendly classmate./,Did the letter arrive this morning?,Y,,0,20,morning,7,2,6,11,1,6,11,569,1562923795191,Y,5478,1
209,1,14,filler,filler_27,,/+/The letter that came this morning was from a friendly classmate./,Did the letter arrive this morning?,Y,,0,20,was,8,2,7,11,1,7,11,504,1562923795695,Y,5478,1
209,1,14,filler,filler_27,,/+/The letter that came this morning was from a friendly classmate./,Did the letter arrive this morning?,Y,,0,20,from,9,2,8,11,1,8,11,472,1562923796167,Y,5478,1
209,1,14,filler,filler_27,,/+/The letter that came this morning was from a friendly classmate./,Did the letter arrive this morning?,Y,,0,20,a,10,2,9,11,1,9,11,420,1562923796587,Y,5478,1
209,1,14,filler,filler_27,,/+/The letter that came this morning was from a friendly classmate./,Did the letter arrive this morning?,Y,,0,20,friendly,11,2,10,11,1,10,11,558,1562923797145,Y,5478,1
209,1,14,filler,filler_27,,/+/The letter that came this morning was from a friendly classmate./,Did the letter arrive this morning?,Y,,0,20,classmate.,12,2,11,11,1,11,11,941,1562923798086,Y,5478,1
209,1,15,filler,filler_15,,/+/The book contained many useful information which could benefit the health./,Could the book be helpful for health?,Y,,0,21,+,1,1,1,1,1,1,1,1546,1562923805625,Y,4682,1
209,1,15,filler,filler_15,,/+/The book contained many useful information which could benefit the health./,Could the book be helpful for health?,Y,,0,21,The,2,2,1,11,1,1,11,555,1562923806180,Y,4682,1
209,1,15,filler,filler_15,,/+/The book contained many useful information which could benefit the health./,Could the book be helpful for health?,Y,,0,21,book,3,2,2,11,1,2,11,550,1562923806730,Y,4682,1
